time,seconds_elapsed,z,y,x
1697907772923994400,0.096994384765625,0,0,0
1697907772942964700,0.11596484375,-0.26471900939941406,-0.08052074909210205,0.5091498494148254
1697907772961935000,0.13493505859375,-0.6442832946777344,-0.2679024934768677,-0.39604148268699646
1697907772980905500,0.153905517578125,-1.5936384201049805,0.12688183784484863,-0.05331575870513916
1697907772999875800,0.172875732421875,-1.6197776794433594,0.3462047576904297,-0.09049409627914429
1697907773018846200,0.19184619140625,-1.4699668884277344,0.004526376724243164,0.36029747128486633
1697907773037816600,0.210816650390625,-0.8168172836303711,-0.6813225746154785,0.1784561276435852
1697907773056787000,0.229786865234375,-0.8332653045654297,-1.0717705488204956,-0.1744394600391388
1697907773075757300,0.24875732421875,-1.1361713409423828,-0.6846665143966675,-0.465889036655426
1697907773094727400,0.2677275390625,-0.31718921661376953,-0.10940015316009521,-1.4926090240478516
1697907773113697800,0.28669775390625,0.8595104217529297,-0.6194415092468262,-1.3445050716400146
1697907773132668400,0.30566845703125,1.0047121047973633,-0.5194331407546997,-0.6751638650894165
1697907773151638800,0.324638671875,1.1981391906738281,0.3628075122833252,-0.9808549880981445
1697907773170609200,0.343609130859375,1.821995735168457,0.8361163139343262,-1.9102654457092285
1697907773189579500,0.36257958984375,1.774728775024414,-0.37407803535461426,-2.601682424545288
1697907773208550000,0.3815498046875,1.1703157424926758,-2.640698194503784,-4.520509243011475
1697907773227520300,0.400520263671875,-0.5525045394897461,-1.8556169271469116,-2.5378966331481934
1697907773246490600,0.41949072265625,-1.1306953430175781,-0.8473494052886963,-0.820936918258667
1697907773265461000,0.4384609375,-0.7436342239379883,0.8682210445404053,0.9989395141601562
1697907773284431400,0.457431396484375,3.321455955505371,-0.8398804664611816,-0.9141220450401306
1697907773303401700,0.476401611328125,2.563608169555664,-3.2743802070617676,-0.6923356056213379
1697907773322372000,0.4953720703125,0.061707496643066406,-4.337405681610107,-3.2301864624023438
1697907773341342500,0.514342529296875,-2.7998995780944824,-5.098359107971191,-2.262138605117798
1697907773360312800,0.533312744140625,-3.609508991241455,-4.250425815582275,-1.263302206993103
1697907773379283000,0.552282958984375,-3.0971150398254395,-3.8168678283691406,-0.37374401092529297
1697907773398253600,0.571253662109375,-3.596622943878174,-4.2794189453125,-0.5640206336975098
1697907773417224000,0.590223876953125,-3.2128243446350098,-4.511412620544434,-0.29026341438293457
1697907773436194300,0.6091943359375,-3.1713366508483887,-5.592637062072754,-0.7820205688476562
1697907773455164700,0.62816455078125,-4.653375148773193,-5.602475166320801,-0.08074569702148438
1697907773474135000,0.647135009765625,-3.6210668087005615,-4.519122123718262,1.8504514694213867
1697907773493105400,0.66610546875,-3.6116981506347656,-5.880576133728027,1.2187614440917969
1697907773512075800,0.68507568359375,-5.2319841384887695,-4.157404899597168,2.0392394065856934
1697907773531046100,0.704046142578125,-4.676356792449951,0.5531644821166992,8.72257137298584
1697907773550016500,0.7230166015625,-2.1721980571746826,3.7840423583984375,2.900054454803467
1697907773568987000,0.74198681640625,-14.643691062927246,-11.42270565032959,-1.9081306457519531
1697907773587957200,0.760957275390625,-8.223557472229004,-1.823798418045044,3.0044946670532227
1697907773606927600,0.779927734375,4.924216270446777,3.8118529319763184,8.843189239501953
1697907773625898000,0.79889794921875,2.860246181488037,10.93977165222168,13.01076602935791
1697907773644868400,0.817868408203125,-1.5482516288757324,8.257046699523926,7.999725341796875
1697907773663838500,0.83683837890625,-0.6757341623306274,2.4696507453918457,1.5828771591186523
1697907773682808800,0.855808837890625,0.7174839973449707,4.0380401611328125,0.9794816970825195
1697907773701779200,0.874779296875,-2.8873698711395264,3.853030204772949,0.043053627014160156
1697907773720749600,0.89374951171875,-0.9005923271179199,-0.6733952760696411,-1.8449888229370117
1697907773739720000,0.912719970703125,0.08659934997558594,-0.9813926815986633,-3.744025230407715
1697907773758690300,0.931690185546875,-1.8879120349884033,1.0029785633087158,-1.5692977905273438
1697907773777660700,0.95066064453125,1.7920194864273071,2.6658594608306885,3.489910125732422
1697907773796631000,0.969631103515625,1.774301528930664,1.05971360206604,2.724771499633789
1697907773815601400,0.988601318359375,-0.24233388900756836,-1.253768801689148,-1.5854697227478027
1697907773834571800,1.00757177734375,1.2656149864196777,-0.3004743456840515,0.8877143859863281
1697907773853542100,1.026542236328125,1.0574491024017334,-1.933044672012329,0.15610027313232422
1697907773872512500,1.045512451171875,-1.4920356273651123,-0.9348733425140381,4.163288116455078
1697907773891483000,1.06448291015625,-1.8033431768417358,-3.404035806655884,-0.10097885131835938
1697907773910453200,1.083453369140625,0.47405219078063965,-0.49576234817504883,3.162714958190918
1697907773929423600,1.102423583984375,-0.13503050804138184,-1.0176159143447876,-0.39469051361083984
1697907773948394000,1.12139404296875,1.7009673118591309,-2.9668900966644287,3.670046806335449
1697907773967364400,1.1403642578125,-0.18910670280456543,-1.2027965784072876,1.6742181777954102
1697907773986334700,1.159334716796875,-1.708993673324585,0.09284833073616028,1.714655876159668
1697907774005305000,1.17830517578125,-1.0162607431411743,1.3511995077133179,0.6273031234741211
1697907774024275500,1.197275390625,-1.1321730613708496,1.3772916793823242,-0.5116586685180664
1697907774043245800,1.216245849609375,-0.8186461925506592,1.1072049140930176,-1.2122392654418945
1697907774062216200,1.23521630859375,0.48180055618286133,1.8988206386566162,-1.4172782897949219
1697907774081186600,1.2541865234375,0.6417570114135742,2.6815218925476074,-1.399662971496582
1697907774100157000,1.273156982421875,0.02945077419281006,1.8112280368804932,-0.12872695922851562
1697907774119127300,1.292127197265625,-0.013314127922058105,1.2118070125579834,-0.11548042297363281
1697907774138097700,1.31109765625,-1.7519357204437256,-0.8224773406982422,0.7462139129638672
1697907774157068000,1.330068115234375,1.8589800596237183,-0.5259231925010681,-2.5249247550964355
1697907774176038400,1.349038330078125,0.7917764186859131,0.2667720913887024,-1.1480903625488281
1697907774195008800,1.3680087890625,1.5802381038665771,-0.3404792845249176,-2.2433547973632812
1697907774213979100,1.386979248046875,-0.32273006439208984,0.5492959022521973,-1.103677749633789
1697907774232949500,1.405949462890625,-0.2919815182685852,-1.3160263299942017,0.15790081024169922
1697907774251920000,1.424919921875,-1.9947327375411987,-2.4461560249328613,-0.8662252426147461
1697907774270890200,1.44389013671875,-0.6045474410057068,-1.5838757753372192,1.0559625625610352
1697907774289860600,1.462860595703125,0.18605923652648926,-1.2805231809616089,-0.1857280731201172
1697907774308831000,1.4818310546875,-1.1811169385910034,-2.487091064453125,2.3473472595214844
1697907774327801300,1.50080126953125,-1.0100845098495483,-0.40066760778427124,-1.6155633926391602
1697907774346771700,1.519771728515625,-1.686834692955017,-0.13428688049316406,-1.0575037002563477
1697907774365742000,1.5387421875,-1.445616602897644,-0.893792986869812,0.11960601806640625
1697907774384712400,1.55771240234375,0.14055156707763672,-1.7733885049819946,2.6528892517089844
1697907774403682800,1.576682861328125,0.9169891476631165,-2.075803756713867,1.494246482849121
1697907774422653200,1.595653076171875,1.091245174407959,-1.5772486925125122,0.6349906921386719
1697907774441623600,1.61462353515625,0.42726320028305054,-1.0681614875793457,0.4822540283203125
1697907774460594000,1.633593994140625,-0.21209824085235596,-0.848112165927887,0.5161352157592773
1697907774479564300,1.652564208984375,-0.705524206161499,-0.5590077638626099,0.4850330352783203
1697907774498534700,1.67153466796875,-1.05788254737854,-0.06445467472076416,0.19359683990478516
1697907774517505000,1.690505126953125,-0.8706446290016174,0.28613436222076416,-0.4769258499145508
1697907774536475400,1.709475341796875,-0.4927738904953003,0.4292665421962738,-0.9185466766357422
1697907774555445800,1.72844580078125,-0.1718570590019226,-0.215521901845932,-1.153839111328125
1697907774574416100,1.747416015625,0.15246206521987915,-0.4546012878417969,-0.1230630874633789
1697907774593386500,1.766386474609375,-0.2743968665599823,-0.32016363739967346,0.82501220703125
1697907774612356900,1.78535693359375,-0.6609945297241211,0.0031988918781280518,0.9607877731323242
1697907774631327200,1.8043271484375,-0.3827126622200012,0.28863728046417236,0.4618692398071289
1697907774650297600,1.823297607421875,-0.02570149302482605,0.19063618779182434,-0.07338809967041016
1697907774669268000,1.84226806640625,0.372450053691864,0.2775694727897644,-0.34198856353759766
1697907774688238300,1.86123828125,0.6106005311012268,0.44892188906669617,-0.6017293930053711
1697907774707208700,1.880208740234375,0.5972225666046143,0.34456223249435425,-0.8455581665039062
1697907774726179000,1.899178955078125,0.3432965874671936,0.017388224601745605,-0.9016866683959961
1697907774745149400,1.9181494140625,0.0824412852525711,-0.19291555881500244,-0.7830991744995117
1697907774764119800,1.937119873046875,-0.012202918529510498,-0.35289907455444336,-0.36057090759277344
1697907774783090200,1.956090087890625,-0.06393417716026306,-0.4124126434326172,0.14875030517578125
1697907774802060500,1.975060546875,0.05262655019760132,-0.38550078868865967,0.6196908950805664
1697907774821031000,1.994031005859375,0.25083139538764954,-0.4183005690574646,0.9351139068603516
1697907774840001300,2.013001220703125,0.39600327610969543,-0.30464163422584534,0.8635139465332031
1697907774858971600,2.0319716796875,0.3181072473526001,-0.19455015659332275,0.3686485290527344
1697907774877942000,2.05094189453125,0.10299983620643616,-0.23258647322654724,-0.06659317016601562
1697907774896912400,2.069912353515625,-0.07318916916847229,-0.3569852411746979,-0.1700735092163086
1697907774915882800,2.0888828125,-0.19193097949028015,-0.5237681865692139,-0.37457752227783203
1697907774934853000,2.10785302734375,-0.1409377157688141,-0.6136162281036377,-0.49335384368896484
1697907774953823500,2.126823486328125,-0.0949467122554779,-0.4545285701751709,-0.3913412094116211
1697907774972793900,2.1457939453125,0.052752137184143066,-0.04549863934516907,-0.14298725128173828
1697907774991764200,2.16476416015625,0.11503782868385315,0.21776869893074036,-0.00101470947265625
1697907775010734600,2.183734619140625,0.13031676411628723,0.364410936832428,-0.02901172637939453
1697907775029705000,2.202705078125,0.12675783038139343,0.3164061903953552,-0.011698722839355469
1697907775048675300,2.22167529296875,0.13473978638648987,0.20621566474437714,0.1621112823486328
1697907775067645700,2.240645751953125,0.08671924471855164,0.2736106216907501,0.27681827545166016
1697907775086615800,2.25961572265625,-0.014040827751159668,0.2874715030193329,0.14563941955566406
1697907775105586200,2.278586181640625,-0.04003441333770752,0.22027331590652466,-0.04391670227050781
1697907775124556500,2.297556640625,-0.1500854790210724,0.07938063144683838,-0.17139434814453125
1697907775143527000,2.31652685546875,-0.167870432138443,0.0356503427028656,-0.28276634216308594
1697907775162497300,2.335497314453125,-0.18150871992111206,0.05539363622665405,-0.2124958038330078
1697907775181467600,2.354467529296875,-0.1771775782108307,0.11858280003070831,-0.027866363525390625
1697907775200438000,2.37343798828125,-0.14335602521896362,0.1935839205980301,0.122314453125
1697907775219408400,2.392408447265625,-0.1355482041835785,0.21864235401153564,0.09221363067626953
1697907775238378800,2.411378662109375,-0.15161535143852234,0.1282103955745697,0.014464378356933594
1697907775257349000,2.43034912109375,-0.181552916765213,0.0020845234394073486,-0.009204864501953125
1697907775276319500,2.449319580078125,-0.17082136869430542,-0.03323368728160858,0.0470428466796875
1697907775295289900,2.468289794921875,-0.12866634130477905,-0.07279640436172485,0.11036205291748047
1697907775314260200,2.48726025390625,-0.10134539008140564,-0.1106264740228653,0.026872634887695312
1697907775333230600,2.506230712890625,-0.08547797799110413,-0.0944114625453949,-0.07245731353759766
1697907775352201000,2.525200927734375,-0.059435755014419556,-0.003959476947784424,-0.09571456909179688
1697907775371171300,2.54417138671875,-0.05029505491256714,0.08355057239532471,-0.05067729949951172
1697907775390141700,2.5631416015625,-0.03680527210235596,0.13383755087852478,-0.016348838806152344
1697907775409112000,2.582112060546875,-0.004703998565673828,0.14345869421958923,-0.01383209228515625
1697907775428082400,2.60108251953125,0.03010702133178711,0.12375055253505707,-0.015777587890625
1697907775447052800,2.620052734375,0.04570209980010986,0.11809280514717102,-0.03636455535888672
1697907775466023200,2.639023193359375,0.040353626012802124,0.13168767094612122,0.009561538696289062
1697907775484993500,2.65799365234375,0.030590832233428955,0.08240319788455963,0.05563545227050781
1697907775503964000,2.6769638671875,0.03997763991355896,0.028769388794898987,0.012185096740722656
1697907775522934300,2.695934326171875,-0.004047363996505737,0.002253815531730652,0.013901710510253906
1697907775541904600,2.714904541015625,0.006347060203552246,0.001470133662223816,-0.035480499267578125
1697907775560875000,2.733875,-0.007431477308273315,-0.07673601806163788,-0.10182666778564453
1697907775579845400,2.752845458984375,-0.013754308223724365,-0.04437738656997681,-0.07932376861572266
1697907775598815700,2.771815673828125,0.06240379810333252,0.00818142294883728,-0.04616832733154297
1697907775617786000,2.7907861328125,0.01582661271095276,-0.032374292612075806,-0.03302478790283203
1697907775636756500,2.809756591796875,-0.04499173164367676,-0.13674286007881165,0.019296646118164062
1697907775655726800,2.828726806640625,-0.08139073848724365,-0.13061077892780304,0.07224178314208984
1697907775674697200,2.847697265625,-0.026273638010025024,-0.0764736533164978,0.12140750885009766
1697907775693667600,2.86666748046875,0.03398290276527405,-0.022907868027687073,0.11958980560302734
1697907775712638000,2.885637939453125,0.06534963846206665,-0.003969311714172363,0.02711772918701172
1697907775731608300,2.9046083984375,0.08615905046463013,0.012782365083694458,-0.046082496643066406
1697907775750578700,2.92357861328125,0.11188003420829773,0.010103881359100342,-0.07023906707763672
1697907775769549000,2.942549072265625,0.13395777344703674,0.02413170039653778,-0.08178997039794922
1697907775788519400,2.96151953125,0.15546506643295288,0.04105435311794281,-0.11170291900634766
1697907775807489800,2.98048974609375,0.14313367009162903,0.04921926558017731,-0.06363391876220703
1697907775826460200,2.999460205078125,0.14906013011932373,0.004546314477920532,-0.014772415161132812
1697907775845430500,3.018430419921875,0.18660053610801697,-0.029231250286102295,0.020819664001464844
1697907775864401000,3.03740087890625,0.21434926986694336,-0.06749469041824341,0.0037975311279296875
1697907775883371000,3.05637109375,0.2863384187221527,-0.11445292830467224,-0.043201446533203125
1697907775902341400,3.07534130859375,0.34015923738479614,-0.10908100008964539,-0.13036823272705078
1697907775921311700,3.094311767578125,0.4022216796875,-0.023311391472816467,-0.2564678192138672
1697907775940282000,3.1132822265625,0.5066280961036682,0.02915133535861969,-0.30772972106933594
1697907775959252500,3.13225244140625,0.47934213280677795,0.018490418791770935,-0.2521209716796875
1697907775978222800,3.151222900390625,0.4308141767978668,-0.004754170775413513,-0.22395610809326172
1697907775997193200,3.170193115234375,0.4729660153388977,-0.008890330791473389,-0.1797351837158203
1697907776016163600,3.18916357421875,0.5896755456924438,-0.02308499813079834,-0.19187259674072266
1697907776035134000,3.208134033203125,0.7791028618812561,-0.1278788447380066,-0.29868125915527344
1697907776054104300,3.227104248046875,0.9004192352294922,-0.10026352107524872,-0.36771678924560547
1697907776073074700,3.24607470703125,0.9514815211296082,0.004960045218467712,-0.4606952667236328
1697907776092045000,3.265045166015625,1.0750981569290161,0.022024527192115784,-0.5472602844238281
1697907776111015400,3.284015380859375,1.1722052097320557,-0.01678822934627533,-0.6835622787475586
1697907776129985800,3.30298583984375,1.2785677909851074,0.03274361789226532,-1.2260007858276367
1697907776148956200,3.3219560546875,1.3638355731964111,0.09690220654010773,-2.4246020317077637
1697907776167926500,3.340926513671875,0.953486442565918,0.049243271350860596,-4.014717102050781
1697907776186897000,3.35989697265625,-0.4471532106399536,-0.15355956554412842,-5.542792797088623
1697907776205867300,3.3788671875,-2.1128854751586914,-0.05422694981098175,-6.131322860717773
1697907776224837600,3.397837646484375,-3.5911197662353516,-0.0032659173011779785,-6.330445289611816
1697907776243808000,3.41680810546875,-4.161006927490234,-0.00882837176322937,-6.248667240142822
1697907776262778400,3.4357783203125,-3.7585196495056152,0.060277797281742096,-6.010661602020264
1697907776281748700,3.454748779296875,-2.194727897644043,0.15603289008140564,-4.96764612197876
1697907776300719000,3.473718994140625,-1.5071895122528076,0.6357243657112122,-1.8251690864562988
1697907776319689500,3.492689453125,-2.9399595260620117,0.7179663777351379,4.462568283081055
1697907776338659800,3.511659912109375,-4.219661712646484,0.005020491778850555,5.234919548034668
1697907776357630200,3.530630126953125,-1.9425883293151855,0.12886174023151398,5.73384952545166
1697907776376600600,3.5496005859375,0.7208290100097656,-0.40442004799842834,8.85503101348877
1697907776395571000,3.568571044921875,1.1570441722869873,-1.4400136470794678,11.849005699157715
1697907776414541300,3.587541259765625,1.08555006980896,-1.4787991046905518,10.945549011230469
1697907776433511700,3.60651171875,0.8276591300964355,-0.6845643520355225,9.232964515686035
1697907776452482000,3.62548193359375,0.7195878028869629,-0.5364891290664673,8.847206115722656
1697907776471452400,3.644452392578125,0.5271203517913818,0.1372164785861969,9.814891815185547
1697907776490422500,3.663422607421875,0.29509949684143066,0.03795615956187248,11.231199264526367
1697907776509393000,3.682392822265625,-0.1792924404144287,-0.2618957459926605,13.425901412963867
1697907776528363300,3.70136328125,-0.7871381044387817,-0.3216719627380371,15.67427921295166
1697907776547333600,3.720333740234375,-1.1154301166534424,-0.7017585039138794,17.58530044555664
1697907776566304000,3.739303955078125,-0.0869150161743164,-0.7616745829582214,18.151630401611328
1697907776585274400,3.7582744140625,2.1462292671203613,-0.30817803740501404,16.26593780517578
1697907776604244700,3.77724462890625,2.630988359451294,1.1309945583343506,11.218299865722656
1697907776623215000,3.796215087890625,3.7735366821289062,1.5971126556396484,3.2949037551879883
1697907776642185500,3.815185546875,3.66609263420105,1.2956688404083252,-3.1256790161132812
1697907776661155800,3.83415576171875,1.7154674530029297,-0.3897123336791992,-7.03297758102417
1697907776680126200,3.853126220703125,2.9517903327941895,-1.1002416610717773,-10.044207572937012
1697907776699096600,3.8720966796875,8.707854270935059,-1.1396225690841675,-15.56806755065918
1697907776718067000,3.89106689453125,4.356000900268555,-1.863938808441162,-26.464317321777344
1697907776737037300,3.910037353515625,4.023756980895996,-1.4499070644378662,-25.971088409423828
1697907776756007700,3.929007568359375,1.7394630908966064,0.6692969799041748,-16.78450584411621
1697907776774978000,3.94797802734375,-2.7744908332824707,2.0829010009765625,-11.364635467529297
1697907776793948400,3.966948486328125,-2.6471188068389893,1.9055981636047363,-6.394708633422852
1697907776812918800,3.985918701171875,-1.5426641702651978,0.9948854446411133,-5.467284202575684
1697907776831889200,4.00488916015625,-0.723425567150116,0.46229225397109985,-4.332900047302246
1697907776850859500,4.023859619140625,-0.20994120836257935,0.20275509357452393,-3.554873466491699
1697907776869830000,4.042829833984375,-0.710651159286499,0.40179866552352905,-4.4865403175354
1697907776888800300,4.06180029296875,-0.7001080513000488,0.5715925097465515,-7.291133880615234
1697907776907770600,4.0807705078125,-0.24669897556304932,0.16891905665397644,-10.083327293395996
1697907776926741000,4.099740966796875,-0.43620508909225464,-0.28263506293296814,-12.921184539794922
1697907776945711400,4.11871142578125,-0.546026349067688,0.05803462862968445,-13.636009216308594
1697907776964681500,4.137681396484375,-0.1550808548927307,0.5619083642959595,-12.865827560424805
1697907776983651800,4.15665185546875,1.1338872909545898,0.2702749967575073,-10.948558807373047
1697907777002622200,4.175622314453125,1.9862382411956787,-0.4529837965965271,-8.857239723205566
1697907777021592600,4.194592529296875,3.4659740924835205,0.04340699315071106,-7.771849632263184
1697907777040563000,4.21356298828125,3.3570096492767334,1.9497759342193604,-7.997884750366211
1697907777059533300,4.232533203125,0.5243285298347473,1.5718022584915161,-9.050323486328125
1697907777078503700,4.251503662109375,0.21810173988342285,-1.1598880290985107,-9.37963581085205
1697907777097474000,4.27047412109375,-0.25907862186431885,-5.095662593841553,-5.787518501281738
1697907777116444400,4.2894443359375,0.5033677816390991,-4.738613128662109,6.704541206359863
1697907777135414800,4.308414794921875,-0.09994888305664062,-6.699176788330078,32.26491165161133
1697907777154385200,4.32738525390625,5.498655796051025,-0.025296270847320557,60.28339767456055
1697907777173355500,4.34635546875,0.7680680751800537,0.2741968631744385,49.62370681762695
1697907777192326000,4.365325927734375,-1.6058251857757568,0.8336019515991211,29.97575569152832
1697907777211296300,4.384296142578125,-3.4294188022613525,4.164051055908203,21.584545135498047
1697907777230266600,4.4032666015625,-3.816521644592285,1.4420266151428223,17.58304214477539
1697907777249237000,4.422237060546875,-1.6534578800201416,-1.994537115097046,15.615609169006348
1697907777268207400,4.441207275390625,0.9601758122444153,-2.6097705364227295,14.489887237548828
1697907777287177700,4.460177734375,2.5336685180664062,-1.6224627494812012,7.295049667358398
1697907777306147800,4.47914794921875,5.589740753173828,-0.2885495126247406,-0.7535619735717773
1697907777325118200,4.4981181640625,7.193624973297119,0.6578909158706665,-5.86370849609375
1697907777344088600,4.517088623046875,5.641879081726074,-0.04042017459869385,-10.468512535095215
1697907777363059000,4.536058837890625,3.297457456588745,-0.9160527586936951,-15.004332542419434
1697907777382029300,4.555029296875,0.6187818646430969,-0.33032500743865967,-19.890605926513672
1697907777400999700,4.573999755859375,-0.8053253293037415,-0.1980380117893219,-20.840425491333008
1697907777419970000,4.592969970703125,-0.2643226087093353,1.1597082614898682,-17.07693862915039
1697907777438940400,4.6119404296875,-0.2179153561592102,2.2932095527648926,-14.213050842285156
1697907777457910800,4.630910888671875,-0.6544488072395325,3.5481162071228027,-10.873672485351562
1697907777476881200,4.649881103515625,-0.3636735677719116,3.094813585281372,-9.226758003234863
1697907777495851500,4.6688515625,-0.5623937845230103,1.9146701097488403,-8.440582275390625
1697907777514822000,4.68782177734375,-0.339205801486969,1.4553401470184326,-7.453919410705566
1697907777533792300,4.706792236328125,0.2298857867717743,1.402700424194336,-7.114104747772217
1697907777552762600,4.7257626953125,1.0989007949829102,1.2080636024475098,-7.974209785461426
1697907777571733000,4.74473291015625,1.3846595287322998,0.5443402528762817,-8.959209442138672
1697907777590703400,4.763703369140625,1.3994934558868408,-0.31841766834259033,-9.610892295837402
1697907777609673700,4.782673828125,0.16522812843322754,-0.9966211915016174,-10.276388168334961
1697907777628644000,4.80164404296875,-0.6968177556991577,-1.8713912963867188,-10.640913009643555
1697907777647614500,4.820614501953125,-1.322514295578003,-3.6888599395751953,-10.653011322021484
1697907777666584800,4.839584716796875,1.897965669631958,-4.924604415893555,-9.705768585205078
1697907777685555200,4.85855517578125,-0.5761529207229614,-4.969518661499023,-4.439696311950684
1697907777704525600,4.877525634765625,-5.960059642791748,-4.9679059982299805,14.591999053955078
1697907777723496000,4.896495849609375,-5.782177448272705,7.517336368560791,38.848426818847656
1697907777742466300,4.91546630859375,13.234055519104004,7.17875862121582,46.44901657104492
1697907777761436400,4.9344365234375,6.545384407043457,-2.4914395809173584,27.4910888671875
1697907777780406800,4.95340673828125,1.1732237339019775,-1.7219384908676147,6.8009233474731445
1697907777799377200,4.972377197265625,0.3840857148170471,-2.7007222175598145,0.8113536834716797
1697907777818347500,4.991347412109375,-0.4006808400154114,1.0162233114242554,-2.282701015472412
1697907777837318000,5.01031787109375,-2.4377007484436035,1.8497023582458496,-5.305968761444092
1697907777856288300,5.029288330078125,-0.26681792736053467,1.4569368362426758,-5.475478172302246
1697907777875258600,5.048258544921875,0.4330698847770691,0.1179482638835907,-4.3857421875
1697907777894229000,5.06722900390625,1.4028429985046387,-1.1491860151290894,-4.461615085601807
1697907777913199400,5.086199462890625,0.9154840111732483,-1.1232582330703735,-4.206481456756592
1697907777932169700,5.105169677734375,0.736158013343811,-0.758220911026001,-4.158402442932129
1697907777951140000,5.12414013671875,0.15268850326538086,-0.09722727537155151,-3.638918876647949
1697907777970110500,5.1431103515625,-0.08327925205230713,1.1151440143585205,-3.373034954071045
1697907777989080800,5.162080810546875,-0.23297160863876343,1.5970487594604492,-3.02426815032959
1697907778008051200,5.18105126953125,-0.7146835923194885,1.556661605834961,-2.261451244354248
1697907778027021600,5.200021484375,-0.8768621683120728,0.9540913105010986,-1.4434804916381836
1697907778045992000,5.218991943359375,-1.016137957572937,-0.20430529117584229,-0.4611492156982422
1697907778064962300,5.23796240234375,-0.5776649117469788,-1.0992450714111328,0.5216188430786133
1697907778083932700,5.2569326171875,0.9559969902038574,-1.0581012964248657,1.507833480834961
1697907778102903000,5.275903076171875,1.497024416923523,-0.4190526008605957,2.45754337310791
1697907778121873200,5.294873046875,1.0406465530395508,0.1218867301940918,2.9809255599975586
1697907778140843500,5.313843505859375,0.15422308444976807,0.6649917960166931,3.2055654525756836
1697907778159814000,5.33281396484375,-0.7785632610321045,0.9326445460319519,2.942981719970703
1697907778178784300,5.3517841796875,-1.1033873558044434,0.6435123682022095,1.9736442565917969
1697907778197754600,5.370754638671875,-0.5771182775497437,0.05207368731498718,0.2731466293334961
1697907778216725000,5.38972509765625,-0.02182537317276001,-0.38048768043518066,-0.972355842590332
1697907778235695400,5.4086953125,0.2402799129486084,-0.6366834044456482,-1.740190029144287
1697907778254665700,5.427665771484375,0.2769734263420105,-0.5523369908332825,-1.790391445159912
1697907778273636000,5.446635986328125,0.03916746377944946,-0.2230263352394104,-0.9883527755737305
1697907778292606500,5.4656064453125,-0.14065849781036377,0.15957501530647278,0.41839027404785156
1697907778311576800,5.484576904296875,-0.08899581432342529,0.37316468358039856,1.2017593383789062
1697907778330547200,5.503547119140625,0.000118255615234375,0.3154529929161072,0.8614139556884766
1697907778349517600,5.522517578125,0.1284828782081604,0.11679020524024963,0.23374080657958984
1697907778368488000,5.541488037109375,-0.18070125579833984,-0.2141338586807251,0.04068470001220703
1697907778387458300,5.560458251953125,-0.5306652784347534,-0.5355398654937744,0.16788959503173828
1697907778406428700,5.5794287109375,-0.7319626212120056,-0.5925263166427612,0.0699615478515625
1697907778425398800,5.598398681640625,-0.6678471565246582,-0.45980697870254517,-0.22770404815673828
1697907778444369200,5.617369140625,-0.4095357656478882,-0.2275909185409546,-0.4131593704223633
1697907778463339500,5.636339599609375,-0.2480682134628296,-0.08415716886520386,-0.2103424072265625
1697907778482310000,5.655309814453125,-0.06878352165222168,-0.13638091087341309,0.08253669738769531
1697907778501280300,5.6742802734375,0.11821138858795166,-0.030809462070465088,0.09497642517089844
1697907778520250600,5.693250732421875,0.0395544171333313,0.08416545391082764,0.07349681854248047
1697907778539221000,5.712220947265625,-0.05372244119644165,0.031058311462402344,0.037100791931152344
1697907778558191400,5.73119140625,-0.14178991317749023,0.027340412139892578,-0.020933151245117188
1697907778577161700,5.75016162109375,-0.24813169240951538,0.013823449611663818,0.02622222900390625
1697907778596132000,5.769132080078125,-0.3348574638366699,-0.0947309136390686,0.03275775909423828
1697907778615102500,5.7881025390625,-0.32097917795181274,-0.19429343938827515,-0.039198875427246094
1697907778634072800,5.80707275390625,-0.24811023473739624,-0.24155360460281372,-0.07694339752197266
1697907778653043200,5.826043212890625,-0.19311779737472534,-0.2898555397987366,0.03596019744873047
1697907778672013600,5.845013671875,-0.14832448959350586,-0.1384018063545227,0.08145427703857422
1697907778690984000,5.86398388671875,-0.2122257947921753,0.021076202392578125,0.13370513916015625
1697907778709954300,5.882954345703125,-0.23927456140518188,0.024627268314361572,0.13820743560791016
1697907778728924700,5.901924560546875,-0.2591301202774048,-0.09847056865692139,0.11265945434570312
1697907778747895000,5.92089501953125,-0.2827037572860718,-0.20428889989852905,0.12048149108886719
1697907778766865400,5.939865478515625,-0.2930911183357239,-0.2738458514213562,0.11409378051757812
1697907778785835500,5.95883544921875,-0.21731114387512207,-0.19821423292160034,0.1359567642211914
1697907778804806000,5.977805908203125,-0.11531591415405273,-0.10478806495666504,0.0421905517578125
1697907778823776300,5.9967763671875,-0.044683992862701416,-0.011672675609588623,-0.04074859619140625
1697907778842746600,6.01574658203125,0.004829883575439453,0.05603915452957153,0.021004676818847656
1697907778861717000,6.034717041015625,-0.003366708755493164,-0.01235818862915039,-0.010428428649902344
1697907778880687400,6.053687255859375,-0.057010114192962646,0.033218324184417725,-0.0035724639892578125
1697907778899657700,6.07265771484375,-0.12123960256576538,0.011977910995483398,-0.06902217864990234
1697907778918628000,6.091628173828125,-0.12143707275390625,-0.02901548147201538,0.013002395629882812
1697907778937598500,6.110598388671875,-0.04276084899902344,0.02224940061569214,0.09207439422607422
1697907778956568800,6.12956884765625,0.06795448064804077,0.058080434799194336,0.04247283935546875
1697907778975539200,6.148539306640625,0.06059396266937256,0.06927627325057983,-0.03819084167480469
1697907778994509600,6.167509521484375,0.02146470546722412,-0.012306690216064453,-0.13236236572265625
1697907779013480000,6.18647998046875,-0.007462918758392334,0.038516461849212646,-0.11779499053955078
1697907779032450300,6.2054501953125,-0.01906907558441162,0.08235007524490356,-0.07606029510498047
1697907779051420700,6.224420654296875,-0.02337634563446045,0.1442166268825531,0.013051986694335938
1697907779070391000,6.24339111328125,-0.05940037965774536,0.17395633459091187,0.0356903076171875
1697907779089361400,6.262361328125,-0.12409007549285889,0.11881089210510254,0.06951332092285156
1697907779108331800,6.281331787109375,-0.046337902545928955,0.012152612209320068,0.0207366943359375
1697907779127302000,6.300302001953125,0.07975703477859497,0.016761422157287598,-0.05195808410644531
1697907779146272300,6.319272216796875,0.23617088794708252,0.14912036061286926,-0.0988616943359375
1697907779165242600,6.33824267578125,0.40066206455230713,0.21880382299423218,-0.23721694946289062
1697907779184213000,6.357212890625,0.587669312953949,0.1792193055152893,-0.5137262344360352
1697907779203183400,6.376183349609375,0.8757173418998718,0.1628948450088501,-0.9367475509643555
1697907779222153700,6.39515380859375,1.2890207767486572,0.2350146770477295,-1.3698177337646484
1697907779241124000,6.4141240234375,1.5839097499847412,0.27589595317840576,-1.8271970748901367
1697907779260094500,6.433094482421875,1.5235248804092407,0.23518076539039612,-2.763908863067627
1697907779279064800,6.45206494140625,1.3570661544799805,0.24868398904800415,-3.986037254333496
1697907779298035200,6.47103515625,0.7470924854278564,0.11890518665313721,-5.447620868682861
1697907779317005600,6.490005615234375,-0.9917411804199219,0.1857624650001526,-6.557787895202637
1697907779335976000,6.508975830078125,-2.10943603515625,0.4887975752353668,-7.3499250411987305
1697907779354946300,6.5279462890625,-2.076831579208374,0.008449405431747437,-7.924924373626709
1697907779373916700,6.546916748046875,-0.6885595917701721,-0.38090357184410095,-7.043969631195068
1697907779392887000,6.565886962890625,1.0031602382659912,-0.11385190486907959,-4.887225151062012
1697907779411857400,6.584857421875,-0.3447686433792114,-0.1269749253988266,-0.14344024658203125
1697907779430827500,6.60382763671875,-2.7353672981262207,-0.40961241722106934,8.224542617797852
1697907779449798000,6.6227978515625,-2.7978675365448,-0.9025063514709473,11.799358367919922
1697907779468768300,6.641768310546875,0.2833106517791748,-0.8136839270591736,16.413206100463867
1697907779487738600,6.660738525390625,2.2502546310424805,-0.17409169673919678,19.82172966003418
1697907779506709000,6.679708984375,2.2009315490722656,0.3508090674877167,12.238901138305664
1697907779525679400,6.698679443359375,0.7857698202133179,0.22575096786022186,9.495375633239746
1697907779544649700,6.717649658203125,-0.5197947025299072,0.10041192173957825,10.071416854858398
1697907779563620000,6.7366201171875,-1.4712995290756226,-0.7104760408401489,11.955486297607422
1697907779582590500,6.755590576171875,-2.7191293239593506,-0.8322658538818359,16.155303955078125
1697907779601560800,6.774560791015625,-1.1898250579833984,0.5674073696136475,17.428756713867188
1697907779620531200,6.79353125,1.947901964187622,1.0348631143569946,13.854747772216797
1697907779639501600,6.81250146484375,3.347172498703003,0.8949981331825256,7.990442276000977
1697907779658472000,6.831471923828125,2.197671890258789,0.3133718967437744,2.4546117782592773
1697907779677442300,6.8504423828125,0.6601073741912842,0.04600903391838074,-1.9744558334350586
1697907779696412700,6.86941259765625,-0.02135920524597168,-0.21924430131912231,-4.807146072387695
1697907779715383000,6.888383056640625,0.20470881462097168,0.07686465978622437,-6.546178817749023
1697907779734353200,6.907353271484375,1.7299773693084717,0.13238370418548584,-10.927461624145508
1697907779753323500,6.926323486328125,4.755375385284424,0.36599040031433105,-18.540542602539062
1697907779772294000,6.9452939453125,4.1870527267456055,0.2583431005477905,-23.724918365478516
1697907779791264300,6.96426416015625,4.880000114440918,0.5441727638244629,-22.813961029052734
1697907779810234600,6.983234619140625,2.0572919845581055,1.6585161685943604,-15.436933517456055
1697907779829205000,7.002205078125,-0.9673870801925659,2.2378578186035156,-11.652036666870117
1697907779848175400,7.02117529296875,-2.0168802738189697,1.6497652530670166,-8.297992706298828
1697907779867145700,7.040145751953125,-1.4852157831192017,0.8315046429634094,-6.721620559692383
1697907779886116000,7.0591162109375,-1.190055251121521,0.7380884885787964,-5.310535907745361
1697907779905086500,7.07808642578125,-1.179261565208435,0.798988401889801,-4.557020664215088
1697907779924056800,7.097056884765625,-1.1976380348205566,0.6721457242965698,-4.784772872924805
1697907779943027200,7.116027099609375,-0.6285730004310608,0.0869748592376709,-6.503117561340332
1697907779961997600,7.13499755859375,-0.06110614538192749,-0.5459796190261841,-8.923694610595703
1697907779980968000,7.153968017578125,0.32054585218429565,-0.7726806402206421,-11.216022491455078
1697907779999938000,7.17293798828125,1.5448973178863525,-0.45754390954971313,-12.597932815551758
1697907780018908400,7.191908447265625,3.632002353668213,0.23886807262897491,-13.370040893554688
1697907780037878800,7.210878662109375,5.40079927444458,0.8093258142471313,-13.721685409545898
1697907780056849200,7.22984912109375,5.02470588684082,0.18460169434547424,-12.6632661819458
1697907780075819500,7.248819580078125,5.630972862243652,-1.6193523406982422,-7.272799015045166
1697907780094790000,7.267789794921875,0.9753303527832031,-3.611842632293701,-0.36198997497558594
1697907780113760300,7.28676025390625,-4.96945333480835,-9.899088859558105,16.187091827392578
1697907780132730600,7.305730712890625,-5.268455505371094,-5.628839492797852,63.26019287109375
1697907780151701000,7.324700927734375,1.458772897720337,-0.27802592515945435,53.369083404541016
1697907780170671400,7.34367138671875,5.61135196685791,1.6277881860733032,23.38329315185547
1697907780189641700,7.362641845703125,2.5057075023651123,0.5659976601600647,14.158158302307129
1697907780208612000,7.381612060546875,0.13303256034851074,5.763416767120361,18.31614112854004
1697907780227582500,7.40058251953125,-4.211596488952637,2.2944529056549072,21.30597496032715
1697907780246552800,7.419552734375,-0.0797194242477417,-1.3575994968414307,22.569561004638672
1697907780265523000,7.43852294921875,1.8915252685546875,-0.17083856463432312,18.499099731445312
1697907780284493300,7.457493408203125,1.451198935508728,0.43786880373954773,11.519678115844727
1697907780303463700,7.476463623046875,3.3664069175720215,0.19362521171569824,4.027738571166992
1697907780322434000,7.49543408203125,5.242812156677246,0.48805803060531616,-1.761556625366211
1697907780341404400,7.514404296875,6.031050205230713,0.11759405583143234,-6.882844924926758
1697907780360374800,7.533374755859375,4.5970683097839355,-0.8576806783676147,-13.054898262023926
1697907780379345200,7.55234521484375,4.490360260009766,-2.114053964614868,-21.970478057861328
1697907780398315500,7.5713154296875,2.9682750701904297,-1.2625179290771484,-27.526721954345703
1697907780417286000,7.590285888671875,3.9394612312316895,-1.1994390487670898,-21.164691925048828
1697907780436256300,7.60925634765625,0.05171087384223938,1.119773030281067,-14.373916625976562
1697907780455226600,7.6282265625,-2.179471969604492,2.291921615600586,-10.885066986083984
1697907780474197000,7.647197021484375,-2.49111008644104,2.0660462379455566,-8.118976593017578
1697907780493167400,7.66616748046875,-1.9232401847839355,0.7780565023422241,-6.959519386291504
1697907780512137700,7.6851376953125,-1.7782799005508423,0.20149292051792145,-6.240251541137695
1697907780531107800,7.70410791015625,-1.514481544494629,0.5189765095710754,-6.181057929992676
1697907780550078200,7.723078125,-0.3242007791996002,0.6446223258972168,-6.837925910949707
1697907780569048600,7.742048583984375,0.970302939414978,0.3859076499938965,-7.750123977661133
1697907780588019000,7.76101904296875,2.20499587059021,0.017401933670043945,-8.833251953125
1697907780606989300,7.7799892578125,2.6834325790405273,-0.09701651334762573,-9.903213500976562
1697907780625959700,7.798959716796875,2.4919440746307373,0.6433453559875488,-10.61642074584961
1697907780644930000,7.817929931640625,1.977494716644287,1.4883688688278198,-11.083961486816406
1697907780663900400,7.836900390625,1.070717453956604,1.190911889076233,-11.352771759033203
1697907780682870800,7.855870849609375,2.4581503868103027,0.41593843698501587,-10.291716575622559
1697907780701841200,7.874841064453125,-4.071561336517334,-3.3134989738464355,-4.794463157653809
1697907780720811500,7.8938115234375,-11.527814865112305,-4.458798408508301,18.742267608642578
1697907780739782000,7.912781982421875,-6.674825668334961,1.338804006576538,54.8189697265625
1697907780758752300,7.931752197265625,6.627010345458984,1.682774543762207,56.609230041503906
1697907780777722600,7.95072265625,2.055736541748047,0.025811627507209778,16.938203811645508
1697907780796692700,7.969692626953125,-3.89756178855896,0.5724964737892151,2.3199634552001953
1697907780815663000,7.9886630859375,-2.0059216022491455,-0.6647170782089233,-4.919153213500977
1697907780834633500,8.007633544921875,-0.32280218601226807,-0.7354031801223755,-7.288511276245117
1697907780853603800,8.026603759765624,-0.09685027599334717,0.6958634257316589,-11.7273588180542
1697907780872574200,8.04557421875,5.435135364532471,1.6444215774536133,-10.14759349822998
1697907780891544600,8.064544677734375,6.241444110870361,0.864305853843689,-9.218714714050293
1697907780910515000,8.083514892578124,2.740891695022583,-1.0918749570846558,-8.248699188232422
1697907780929485300,8.1024853515625,1.6385729312896729,-1.72134530544281,-5.697729587554932
1697907780948455700,8.12145556640625,1.3492131233215332,-0.6245667338371277,-4.463669776916504
1697907780967426000,8.140426025390624,0.03337398171424866,0.3091554641723633,-4.233889579772949
1697907780986396400,8.159396484375,-0.13706454634666443,0.6414711475372314,-3.5194077491760254
1697907781005366800,8.17836669921875,-1.4576817750930786,0.4242522120475769,-0.3759489059448242
1697907781024337200,8.197337158203124,-2.635148763656616,0.5296523571014404,4.746865272521973
1697907781043307500,8.2163076171875,-2.5266120433807373,0.08915144205093384,7.26019287109375
1697907781062277600,8.235277587890625,-0.23587870597839355,-0.7679921388626099,8.619365692138672
1697907781081248000,8.254248046875,-0.10808795690536499,-0.10684370994567871,7.496993064880371
1697907781100218400,8.27321826171875,0.4882063865661621,0.12695753574371338,4.512580871582031
1697907781119188700,8.292188720703125,0.452339231967926,0.05036936700344086,0.8017787933349609
1697907781138159000,8.3111591796875,0.08786287903785706,-0.24900314211845398,-1.9275016784667969
1697907781157129500,8.33012939453125,-0.22140789031982422,-0.5415350198745728,-3.2451839447021484
1697907781176099800,8.349099853515625,-0.7298194169998169,-0.3589213490486145,-3.8691186904907227
1697907781195070200,8.3680703125,-0.9093043804168701,0.048575401306152344,-3.882251262664795
1697907781214040600,8.38704052734375,-0.7033308148384094,0.058348774909973145,-3.138392448425293
1697907781233011000,8.406010986328125,-0.3735761046409607,-0.004147261381149292,-1.8997268676757812
1697907781251981300,8.424981201171875,-0.15986934304237366,-0.3999459743499756,-0.13821983337402344
1697907781270951700,8.44395166015625,0.06128215789794922,-0.62481290102005,2.3494911193847656
1697907781289922000,8.462922119140625,-0.1279895305633545,0.09441572427749634,4.819777488708496
1697907781308892200,8.48189208984375,-0.6742212772369385,0.7940517663955688,4.563067436218262
1697907781327862500,8.500862548828126,0.02446538209915161,0.5737999677658081,1.787837028503418
1697907781346833000,8.5198330078125,0.17184719443321228,0.24792374670505524,0.005331993103027344
1697907781365803300,8.53880322265625,-0.3021472990512848,0.16250190138816833,-0.9071626663208008
1697907781384773600,8.557773681640626,-0.4695289731025696,-0.2188788652420044,-1.5550060272216797
1697907781403744000,8.576743896484375,-0.32976120710372925,-0.4098418354988098,-1.836881160736084
1697907781422714400,8.59571435546875,-0.2110804170370102,-0.10341104865074158,-1.8039660453796387
1697907781441684700,8.614684814453126,-0.3534972369670868,0.1454015076160431,-1.0382795333862305
1697907781460655000,8.633655029296875,-0.44813740253448486,0.1266336739063263,-0.28568267822265625
1697907781479625500,8.65262548828125,-0.33303511142730713,0.03243014216423035,0.4018869400024414
1697907781498595800,8.671595947265626,-0.03399080038070679,0.030792027711868286,1.1649065017700195
1697907781517566200,8.690566162109375,0.13697278499603271,0.1249736100435257,1.493971824645996
1697907781536536300,8.709536376953125,0.2131403088569641,0.18125644326210022,1.2214469909667969
1697907781555506700,8.728506591796876,0.018130213022232056,0.21499061584472656,0.6156949996948242
1697907781574477000,8.74747705078125,-0.36460012197494507,0.14763952791690826,-0.039704322814941406
1697907781593447400,8.766447509765625,-0.5967824459075928,0.010093122720718384,-0.6365184783935547
1697907781612417800,8.785417724609376,-0.5949954986572266,-0.11891719698905945,-0.9411182403564453
1697907781631388200,8.80438818359375,-0.4815262258052826,-0.08253371715545654,-0.8094921112060547
1697907781650358500,8.823358642578125,-0.33365046977996826,-0.0911037027835846,-0.33940792083740234
1697907781669329000,8.842328857421874,-0.22674494981765747,-0.15182167291641235,0.15954971313476562
1697907781688299300,8.86129931640625,-0.054154783487319946,-0.12879809737205505,0.5344381332397461
1697907781707269600,8.88026953125,0.03547784686088562,-0.02536424994468689,0.7424402236938477
1697907781726240000,8.899239990234374,0.021101444959640503,-0.0001952648162841797,0.6957359313964844
1697907781745210400,8.91821044921875,-0.04077199101448059,-0.0011811554431915283,0.3672494888305664
1697907781764180500,8.937180419921875,-0.21196481585502625,0.020740628242492676,-0.043061256408691406
1697907781783150800,8.95615087890625,-0.2653625011444092,-0.009529948234558105,-0.312744140625
1697907781802121200,8.975121337890625,-0.3220832645893097,-0.05419766902923584,-0.3708181381225586
1697907781821091600,8.994091552734375,-0.3041822910308838,-0.08031806349754333,-0.3327817916870117
1697907781840062000,9.01306201171875,-0.2042357325553894,-0.09527912735939026,-0.118133544921875
1697907781859032300,9.0320322265625,-0.05215141177177429,-0.08724451065063477,0.07403564453125
1697907781878002700,9.051002685546875,0.008699417114257812,-0.06954598426818848,0.13658809661865234
1697907781896973000,9.06997314453125,0.015622049570083618,-0.08713549375534058,0.15340328216552734
1697907781915943400,9.088943359375,0.11061084270477295,-0.14077547192573547,0.09121417999267578
1697907781934913800,9.107913818359375,0.17761585116386414,-0.14581093192100525,-0.01906871795654297
1697907781953884200,9.12688427734375,0.20490676164627075,-0.1423928141593933,-0.17014408111572266
1697907781972854500,9.1458544921875,0.2286810278892517,-0.18203502893447876,-0.3110380172729492
1697907781991824600,9.16482470703125,0.2748563289642334,-0.2240719199180603,-0.39807605743408203
1697907782010795000,9.183794921875,0.4119408130645752,-0.16184738278388977,-0.5272083282470703
1697907782029765400,9.202765380859375,0.6945201754570007,-0.037422508001327515,-0.7753086090087891
1697907782048735700,9.22173583984375,1.0927894115447998,0.0353982150554657,-1.4565801620483398
1697907782067706000,9.2407060546875,1.6556744575500488,-0.05893146991729736,-2.7584657669067383
1697907782086676500,9.259676513671875,2.043961763381958,-0.25250184535980225,-4.451319217681885
1697907782105646800,9.278646728515625,1.8734334707260132,-0.2222479283809662,-6.124563217163086
1697907782124617200,9.2976171875,0.8529412746429443,0.27575451135635376,-7.052928924560547
1697907782143587600,9.316587646484376,-1.2291443347930908,0.8290595412254333,-7.226922988891602
1697907782162558000,9.335557861328125,-3.339444637298584,0.8735984563827515,-7.252638339996338
1697907782181528300,9.3545283203125,-3.2072153091430664,0.673997163772583,-6.689626216888428
1697907782200498700,9.373498779296876,0.17094874382019043,-0.04259003698825836,-5.3305344581604
1697907782219468800,9.39246875,1.3242799043655396,-1.208033800125122,-1.3670744895935059
1697907782238439200,9.411439208984374,-1.1312990188598633,0.06120677292346954,4.569601058959961
1697907782257409500,9.430409423828126,-2.0744943618774414,1.2218495607376099,7.95393180847168
1697907782276380000,9.4493798828125,-0.4227128028869629,-0.4016294777393341,10.5535888671875
1697907782295350300,9.468350341796874,2.5545740127563477,-1.19489324092865,17.45100212097168
1697907782314320600,9.487320556640626,1.0234593152999878,-0.949539303779602,16.54833984375
1697907782333291000,9.506291015625,0.17288661003112793,-0.2727249562740326,11.400752067565918
1697907782352261400,9.525261474609374,-0.256366491317749,0.22557808458805084,10.52245044708252
1697907782371231700,9.544231689453126,-0.3705766201019287,0.094415083527565,10.633785247802734
1697907782390202000,9.5632021484375,-0.5099664926528931,-0.15130864083766937,11.399113655090332
1697907782409172500,9.58217236328125,-0.32148194313049316,0.25252482295036316,12.864982604980469
1697907782428142800,9.601142822265626,-0.17677068710327148,0.9309398531913757,13.063973426818848
1697907782447113000,9.620113037109375,0.9465798139572144,1.1409003734588623,10.699009895324707
1697907782466083300,9.639083251953124,2.227114200592041,0.8500857353210449,7.007542610168457
1697907782485053700,9.6580537109375,2.1858768463134766,0.273154616355896,2.953497886657715
1697907782504024000,9.677024169921875,0.6602617502212524,-0.1187160313129425,-0.6824550628662109
1697907782522994400,9.695994384765624,-0.4829314947128296,-0.23658603429794312,-3.0875768661499023
1697907782541964800,9.71496484375,-0.9797223806381226,-0.20500391721725464,-4.874085426330566
1697907782560935200,9.73393505859375,-1.2365338802337646,0.058986544609069824,-6.657845973968506
1697907782579905500,9.752905517578125,-0.6178322434425354,0.31215304136276245,-9.293150901794434
1697907782598876000,9.7718759765625,0.35697969794273376,0.5426397323608398,-15.282888412475586
1697907782617846300,9.79084619140625,1.3024569749832153,0.33438247442245483,-21.660648345947266
1697907782636816600,9.809816650390625,4.743631839752197,-0.09740811586380005,-22.329137802124023
1697907782655786800,9.828786865234376,4.637729644775391,1.080669641494751,-16.8306884765625
1697907782674757000,9.847757080078125,1.3939778804779053,1.5822780132293701,-13.038496017456055
1697907782693727500,9.8667275390625,-1.2308003902435303,1.3256125450134277,-8.761237144470215
1697907782712697900,9.88569775390625,-1.746386170387268,0.7006645202636719,-6.2330780029296875
1697907782731668200,9.904668212890625,-1.4154634475708008,0.4073753356933594,-5.396918773651123
1697907782750638600,9.923638671875,-1.3479520082473755,0.5668854713439941,-4.930029392242432
1697907782769609000,9.94260888671875,-0.6990147233009338,0.7445898056030273,-5.178980350494385
1697907782788579300,9.961579345703125,0.6130049228668213,0.3788866400718689,-6.493402004241943
1697907782807549700,9.9805498046875,1.862147331237793,-0.16898435354232788,-8.587291717529297
1697907782826520000,9.99952001953125,3.113511085510254,-0.0788126289844513,-11.06804084777832
1697907782845490400,10.018490478515625,4.8194098472595215,0.1069079041481018,-13.56509017944336
1697907782864460800,10.037460693359375,4.2331366539001465,-0.7610222101211548,-15.116164207458496
1697907782883431000,10.056430908203126,4.164924144744873,-1.489579439163208,-10.869820594787598
1697907782902401300,10.0754013671875,1.0171518325805664,-2.1436376571655273,-4.826171398162842
1697907782921371600,10.09437158203125,1.879810094833374,-8.479086875915527,0.6718683242797852
1697907782940342000,10.113342041015626,12.797723770141602,-0.9611936807632446,39.040218353271484
1697907782959312400,10.1323125,-14.464374542236328,-2.611294746398926,68.73223114013672
1697907782978282800,10.15128271484375,3.2765896320343018,0.6562505960464478,39.01401901245117
1697907782997253000,10.170253173828126,4.891101360321045,0.5027849078178406,12.198708534240723
1697907783016223500,10.189223388671875,5.214303493499756,2.6905083656311035,11.568904876708984
1697907783035193900,10.20819384765625,-5.836794376373291,-0.555061936378479,16.567100524902344
1697907783054164200,10.227164306640624,-4.875207424163818,0.25332939624786377,23.70806884765625
1697907783073134600,10.246134521484375,2.1231775283813477,1.131085753440857,16.62677001953125
1697907783092105000,10.26510498046875,4.644420623779297,0.867138683795929,6.431300163269043
1697907783111075000,10.284074951171876,4.904580116271973,1.1750807762145996,0.6033315658569336
1697907783130045400,10.30304541015625,4.014591217041016,1.0739623308181763,-3.462604522705078
1697907783149015800,10.322015869140625,3.4329771995544434,0.20671840012073517,-7.254067420959473
1697907783167986200,10.340986083984374,2.4920597076416016,-0.994478166103363,-10.478363037109375
1697907783186956500,10.35995654296875,0.9050033092498779,-1.478332757949829,-14.928031921386719
1697907783205927000,10.378927001953125,0.2336963415145874,-1.7901229858398438,-20.94580841064453
1697907783224897300,10.397897216796874,1.4863932132720947,-2.297497272491455,-21.820741653442383
1697907783243867600,10.41686767578125,1.566515326499939,-1.768892765045166,-17.8053035736084
1697907783262838000,10.435838134765625,-0.6870400309562683,1.5966413021087646,-12.375740051269531
1697907783281808400,10.454808349609374,-1.4275469779968262,3.493215799331665,-9.952176094055176
1697907783300778800,10.47377880859375,-0.5670968890190125,2.9126596450805664,-8.643363952636719
1697907783319749000,10.4927490234375,-0.830600380897522,1.9757765531539917,-7.982064247131348
1697907783338719200,10.51171923828125,-0.823445200920105,1.759404182434082,-7.417804718017578
1697907783357689600,10.530689697265625,-0.33226874470710754,1.7296793460845947,-7.316866874694824
1697907783376660000,10.549659912109375,0.7998151183128357,1.5910029411315918,-7.643310546875
1697907783395630300,10.56863037109375,1.0368359088897705,1.369300365447998,-8.294660568237305
1697907783414600700,10.5876005859375,0.24254459142684937,1.5614217519760132,-8.716232299804688
1697907783433571000,10.606571044921875,0.4252822697162628,0.19161885976791382,-10.521501541137695
1697907783452541400,10.62554150390625,4.223198413848877,-1.3070237636566162,-9.082171440124512
1697907783471511800,10.64451171875,-2.017015218734741,-1.7351834774017334,-2.9149765968322754
1697907783490482200,10.663482177734375,-6.679708003997803,-3.0232086181640625,16.823780059814453
1697907783509452500,10.68245263671875,-1.1958352327346802,-0.6631436347961426,52.34638595581055
1697907783528422700,10.701422607421875,2.9749951362609863,1.8121806383132935,39.99946594238281
1697907783547393000,10.72039306640625,-0.38968831300735474,-1.6482410430908203,14.295741081237793
1697907783566363400,10.73936328125,-2.2872085571289062,1.8416391611099243,4.58372688293457
1697907783585333800,10.758333740234375,-2.7502799034118652,0.63167804479599,-2.4396209716796875
1697907783604304100,10.77730419921875,-0.8001779317855835,-0.7267946600914001,-3.2338061332702637
1697907783623274500,10.7962744140625,-2.898284673690796,-0.21838989853858948,-8.093408584594727
1697907783642244900,10.815244873046876,2.278722047805786,1.0242189168930054,-9.061674118041992
1697907783661215200,10.83421533203125,3.2416443824768066,0.8340163230895996,-7.972252368927002
1697907783680185600,10.853185546875,2.614985942840576,-0.2849050760269165,-6.263683795928955
1697907783699156000,10.872156005859376,3.0354666709899902,-1.5162155628204346,-5.617215156555176
1697907783718126000,10.8911259765625,2.984335422515869,-1.6100308895111084,-5.36131477355957
1697907783737096400,10.910096435546874,1.729548454284668,-0.37093132734298706,-5.63566255569458
1697907783756066800,10.92906689453125,0.8600743412971497,0.24063703417778015,-5.901694297790527
1697907783775037200,10.948037109375,0.09454214572906494,0.403666615486145,-3.6669540405273438
1697907783794007600,10.967007568359374,-2.3126585483551025,-0.27762579917907715,1.5996828079223633
1697907783812978000,10.98597802734375,-3.77085280418396,0.011377274990081787,8.20442008972168
1697907783831948300,11.0049482421875,-1.6991009712219238,0.5135430693626404,9.894546508789062
1697907783850918700,11.023918701171874,0.02498161792755127,-0.06808391213417053,11.466360092163086
1697907783869889000,11.042888916015626,-0.15045008063316345,-0.5608605146408081,4.7903547286987305
1697907783888859400,11.061859375,0.8547644019126892,-0.3501342535018921,-0.0601348876953125
1697907783907829800,11.080829833984374,0.8558733463287354,-0.0518474280834198,-2.90852689743042
1697907783926800000,11.0997998046875,0.8504351377487183,-0.037542492151260376,-4.675887584686279
1697907783945770200,11.118770263671875,0.48620375990867615,-0.0982356071472168,-5.452635288238525
1697907783964740600,11.13774072265625,-0.5006580352783203,0.076395183801651,-4.737796783447266
1697907783983711000,11.1567109375,-1.2865469455718994,0.20842301845550537,-2.398855686187744
1697907784002681300,11.175681396484375,-1.5410394668579102,-0.04526698589324951,-0.007678985595703125
1697907784021651700,11.194651611328124,-1.0468952655792236,-0.4268140196800232,2.5533761978149414
1697907784040622000,11.2136220703125,-0.033111006021499634,-0.7674026489257812,4.004456520080566
1697907784059592400,11.232592529296875,0.5187605619430542,-0.9033368825912476,4.137871742248535
1697907784078562800,11.251562744140625,0.2356652319431305,-0.5111415386199951,2.8486900329589844
1697907784097533200,11.270533203125,-0.34673357009887695,0.022989243268966675,1.0014667510986328
1697907784116503600,11.289503662109375,-0.6728827357292175,0.3545171618461609,-0.732600212097168
1697907784135474000,11.308473876953125,-0.7149694561958313,0.3677619993686676,-2.07716703414917
1697907784154444000,11.327444091796876,-0.6740247011184692,0.00899052619934082,-2.5671467781066895
1697907784173414400,11.346414306640625,-0.6169022917747498,-0.39788633584976196,-1.9544649124145508
1697907784192384800,11.365384765625,-0.4821460247039795,-0.36032307147979736,-0.7914924621582031
1697907784211355100,11.384355224609376,-0.06013011932373047,-0.15507030487060547,0.21055984497070312
1697907784230325500,11.403325439453125,0.19588083028793335,-0.04049491882324219,0.8925790786743164
1697907784249296000,11.4222958984375,0.3052178621292114,0.025075018405914307,1.231755256652832
1697907784268266200,11.441266357421876,0.22367870807647705,-0.030502259731292725,1.234588623046875
1697907784287236600,11.460236572265625,0.053802162408828735,-0.034177184104919434,0.9863576889038086
1697907784306207000,11.47920703125,-0.18555408716201782,-0.06318339705467224,0.5630054473876953
1697907784325177300,11.49817724609375,-0.42261308431625366,-0.05154985189437866,0.06564140319824219
1697907784344147500,11.5171474609375,-0.5232064723968506,-0.011498063802719116,-0.4645814895629883
1697907784363117800,11.536117919921875,-0.44669443368911743,0.02133086323738098,-0.8389348983764648
1697907784382088200,11.555088134765626,-0.275851309299469,0.06553125381469727,-0.8558435440063477
1697907784401058600,11.57405859375,-0.1554679125547409,-0.006020784378051758,-0.5673055648803711
1697907784420029000,11.59302880859375,-0.11578249931335449,-0.07194966077804565,0.0655660629272461
1697907784438999300,11.611999267578126,0.018946915864944458,-0.027648627758026123,0.5329875946044922
1697907784457969700,11.6309697265625,0.1837463527917862,0.04593527317047119,0.6999788284301758
1697907784476940000,11.64993994140625,0.24518807232379913,0.1096470057964325,0.5295619964599609
1697907784495910400,11.668910400390626,0.14777544140815735,0.14366120100021362,0.2953777313232422
1697907784514880800,11.687880859375,0.009142830967903137,0.1266835629940033,0.045551300048828125
1697907784533851000,11.706850830078125,-0.05973352491855621,0.1493959128856659,-0.009850502014160156
1697907784552821200,11.7258212890625,-0.04678070545196533,0.14538657665252686,-0.11499691009521484
1697907784571791600,11.74479150390625,0.00888851284980774,0.08682197332382202,-0.2670621871948242
1697907784590762000,11.763761962890625,0.09014534950256348,-0.011895835399627686,-0.4229297637939453
1697907784609732400,11.782732421875,0.16966834664344788,-0.018841415643692017,-0.4488706588745117
1697907784628702700,11.80170263671875,0.3437364995479584,0.042621731758117676,-0.39084815979003906
1697907784647673000,11.820673095703125,0.5687940120697021,0.13615581393241882,-0.3137035369873047
1697907784666643500,11.8396435546875,0.6664279103279114,0.23503760993480682,-0.32700157165527344
1697907784685613800,11.85861376953125,0.5909634828567505,0.3606891930103302,-0.4447813034057617
1697907784704584000,11.877583984375,0.4958193898200989,0.36555880308151245,-0.559168815612793
1697907784723554300,11.89655419921875,0.6167103052139282,0.2782733738422394,-0.7656173706054688
1697907784742524700,11.915524658203125,1.0090765953063965,0.12279278039932251,-1.2445507049560547
1697907784761495000,11.9344951171875,1.5838649272918701,0.036271750926971436,-2.0864577293395996
1697907784780465400,11.95346533203125,1.800257921218872,0.09816521406173706,-3.2313179969787598
1697907784799435800,11.972435791015625,1.1818538904190063,0.06981369853019714,-4.419449806213379
1697907784818406100,11.99140625,0.24070942401885986,0.06401810050010681,-5.327965259552002
1697907784837376500,12.01037646484375,-0.8915924429893494,0.09636658430099487,-6.115721702575684
1697907784856347000,12.029346923828125,-2.0426135063171387,0.201802596449852,-6.741148948669434
1697907784875317200,12.048317138671875,-1.957074761390686,0.29209399223327637,-6.909030437469482
1697907784894287600,12.06728759765625,-0.7465636134147644,0.28736627101898193,-6.633630752563477
1697907784913258000,12.086258056640625,-0.3670077323913574,0.2722858488559723,-4.843818664550781
1697907784932228400,12.105228271484375,-0.634902834892273,0.17423118650913239,-1.6283297538757324
1697907784951198500,12.124198486328124,-2.4616217613220215,0.017740264534950256,5.310742378234863
1697907784970168800,12.1431689453125,-2.3127193450927734,-0.6159589886665344,7.892891883850098
1697907784989139200,12.16213916015625,0.2469470500946045,-1.016913890838623,10.906371116638184
1697907785008109600,12.181109619140624,0.6820528507232666,-1.611109733581543,16.423282623291016
1697907785027080000,12.200079833984375,0.17632365226745605,-0.642620861530304,14.279696464538574
1697907785046050300,12.21905029296875,0.33779144287109375,0.43278706073760986,9.93487548828125
1697907785065020700,12.238020751953124,0.2596871852874756,0.5198934674263,8.966456413269043
1697907785083991000,12.256990966796875,-0.16412293910980225,0.2550622224807739,9.664331436157227
1697907785102961400,12.27596142578125,-0.8484920263290405,-0.01910749077796936,11.528678894042969
1697907785121931500,12.294931640625,-1.424466609954834,-0.037223368883132935,14.497316360473633
1697907785140902000,12.31390185546875,-1.6666185855865479,0.3574511408805847,16.710546493530273
1697907785159872300,12.332872314453125,-0.19795691967010498,0.5409872531890869,15.616535186767578
1697907785178842600,12.351842529296874,2.4614028930664062,-0.029967516660690308,11.702821731567383
1697907785197813000,12.37081298828125,3.6181225776672363,-0.07735645771026611,7.074705123901367
1697907785216783400,12.389783447265625,2.7819032669067383,-0.17817336320877075,2.26126766204834
1697907785235753700,12.408753662109374,1.4111218452453613,-0.18018308281898499,-2.403657913208008
1697907785254724000,12.42772412109375,0.5182023048400879,-0.017999470233917236,-5.556449890136719
1697907785273694500,12.446694580078125,-0.25439590215682983,0.18653026223182678,-7.682961463928223
1697907785292664800,12.465664794921874,-0.25635963678359985,0.26872843503952026,-9.620211601257324
1697907785311635000,12.484635009765626,1.333841323852539,0.5831023454666138,-12.775152206420898
1697907785330605300,12.503605224609375,2.62166428565979,0.19813737273216248,-20.266983032226562
1697907785349575700,12.52257568359375,4.727906227111816,0.1824854016304016,-22.8969669342041
1697907785368546000,12.541546142578126,7.053518772125244,0.9747209548950195,-20.85948944091797
1697907785387516400,12.560516357421875,3.514730930328369,1.897028923034668,-14.922276496887207
1697907785406486800,12.57948681640625,0.32374653220176697,1.6467403173446655,-10.844661712646484
1697907785425457200,12.59845703125,-2.0192174911499023,1.205810308456421,-7.0744757652282715
1697907785444427500,12.617427490234375,-1.510735034942627,0.8079823851585388,-5.099130630493164
1697907785463398000,12.63639794921875,-1.3708055019378662,0.91090989112854,-4.4370903968811035
1697907785482368000,12.655367919921876,-1.109442949295044,1.0709080696105957,-4.95674991607666
1697907785501338400,12.67433837890625,-0.5914498567581177,1.018789529800415,-5.778252601623535
1697907785520308700,12.693308837890624,-0.22931818664073944,0.7509793043136597,-6.881626129150391
1697907785539279000,12.712279052734376,0.34374529123306274,0.2188621163368225,-8.355461120605469
1697907785558249500,12.73124951171875,1.1072068214416504,0.4171316623687744,-9.61354923248291
1697907785577219800,12.7502197265625,2.447786808013916,0.8328373432159424,-10.712553977966309
1697907785596190200,12.769190185546876,4.1605610847473145,0.2280859649181366,-12.166248321533203
1697907785615160600,12.78816064453125,6.733943939208984,-1.724320411682129,-12.964757919311523
1697907785634131000,12.807130859375,5.908813953399658,-3.067594528198242,-9.783957481384277
1697907785653101300,12.826101318359376,2.8136982917785645,-4.7170209884643555,-4.952840805053711
1697907785672071700,12.84507177734375,10.218659400939941,-12.125035285949707,9.92418098449707
1697907785691042000,12.8640419921875,-9.321282386779785,-0.9121769070625305,68.2562026977539
1697907785710012200,12.88301220703125,-2.3958027362823486,1.3182458877563477,64.71735382080078
1697907785728982500,12.901982421875,8.605730056762695,1.3803577423095703,24.462081909179688
1697907785747953000,12.920952880859375,3.598846435546875,2.5205636024475098,14.623297691345215
1697907785766923300,12.93992333984375,-1.6162493228912354,3.157975673675537,14.599831581115723
1697907785785893600,12.9588935546875,-2.6247622966766357,-0.0519336462020874,18.891796112060547
1697907785804864000,12.977864013671875,1.8580493927001953,-0.6735517978668213,15.523401260375977
1697907785823834400,12.99683447265625,3.1830739974975586,0.0016174912452697754,7.577531814575195
1697907785842804700,13.0158046875,4.442251205444336,-0.7733874320983887,0.42933082580566406
1697907785861774800,13.03477490234375,5.247720241546631,-0.9222284555435181,-4.963741302490234
1697907785880745200,13.0537451171875,4.385170936584473,-0.45887303352355957,-8.671122550964355
1697907785899715600,13.072715576171875,3.8211100101470947,-0.7449908256530762,-13.122055053710938
1697907785918686000,13.09168603515625,3.366147518157959,-1.2363288402557373,-19.228633880615234
1697907785937656300,13.11065625,0.5974916219711304,-0.10572350025177002,-24.750080108642578
1697907785956626700,13.129626708984375,1.7020318508148193,0.47696375846862793,-20.165084838867188
1697907785975597000,13.14859716796875,-0.13195204734802246,2.111565589904785,-15.022650718688965
1697907785994567400,13.1675673828125,-2.1693780422210693,4.064122200012207,-11.284811019897461
1697907786013537800,13.186537841796875,-2.6628503799438477,3.7429795265197754,-9.018980979919434
1697907786032508200,13.205508056640625,-2.049036741256714,2.084132194519043,-7.873807907104492
1697907786051478300,13.224478271484376,-1.682151436805725,0.4877936542034149,-7.293246269226074
1697907786070448600,13.24344873046875,-1.2248512506484985,-0.3697303235530853,-6.4527153968811035
1697907786089419000,13.2624189453125,-0.0363236665725708,-1.068005919456482,-6.547758102416992
1697907786108389400,13.281389404296876,0.7655208110809326,-1.3796015977859497,-7.207648277282715
1697907786127359700,13.30035986328125,1.3524045944213867,-1.1890063285827637,-8.43984603881836
1697907786146330000,13.319330078125,0.9003906846046448,-1.4671286344528198,-10.14458179473877
1697907786165300500,13.338300537109374,-0.29495537281036377,-1.8280901908874512,-10.957924842834473
1697907786184270800,13.357270751953125,-1.1321418285369873,-1.64644455909729,-10.076005935668945
1697907786203241200,13.3762412109375,2.3012616634368896,-3.049239158630371,-6.6479597091674805
1697907786222211600,13.395211669921874,-4.3226518630981445,-6.237030506134033,12.310718536376953
1697907786241181700,13.414181640625,-6.957076072692871,4.488039493560791,45.567283630371094
1697907786260152000,13.433152099609375,10.579675674438477,8.065483093261719,50.689918518066406
1697907786279122400,13.452122314453124,2.708221912384033,1.8413265943527222,22.191509246826172
1697907786298092800,13.4710927734375,1.3439562320709229,0.5783939957618713,4.718282699584961
1697907786317063200,13.490063232421875,-1.4099843502044678,-0.0915958359837532,-1.1429414749145508
1697907786336033500,13.509033447265624,-1.86310613155365,-2.5942225456237793,-4.97657585144043
1697907786355004000,13.52800390625,-1.0306036472320557,-0.14908437430858612,-7.432365417480469
1697907786373974300,13.546974365234375,-1.0783648490905762,1.5147497653961182,-10.293482780456543
1697907786392944600,13.565944580078124,1.801414966583252,0.49608203768730164,-10.020909309387207
1697907786411915000,13.5849150390625,1.8308647871017456,-0.8002300262451172,-8.160858154296875
1697907786430885000,13.603885009765625,0.5957674384117126,-0.8728146553039551,-6.193068504333496
1697907786449855500,13.62285546875,1.1491161584854126,-0.5852936506271362,-5.241196155548096
1697907786468825900,13.641825927734375,2.272040367126465,-0.46336832642555237,-4.859993934631348
1697907786487796200,13.660796142578125,1.969423532485962,-0.45148342847824097,-3.959406852722168
1697907786506766600,13.6797666015625,1.5441352128982544,-0.9544976353645325,-2.0578064918518066
1697907786525737000,13.698737060546875,-0.9360553622245789,-0.5436132550239563,6.950007438659668
1697907786544707300,13.717707275390625,-4.858593463897705,2.6085147857666016,18.92826271057129
1697907786563677700,13.736677734375,-0.6330329775810242,1.4719884395599365,11.757773399353027
1697907786582647800,13.755647705078125,-0.062117934226989746,-0.10294657945632935,5.035208702087402
1697907786601618200,13.7746181640625,-0.6289494633674622,0.05239897966384888,-1.8492798805236816
1697907786620588500,13.793588623046874,-0.7360543012619019,0.4476168155670166,-5.451762676239014
1697907786639559000,13.812558837890625,-0.5952298045158386,-0.17622080445289612,-7.245745658874512
1697907786658529300,13.831529296875,-0.001780182123184204,-0.8170294761657715,-6.006224155426025
1697907786677499600,13.850499755859374,-0.05203273892402649,-0.4214700162410736,-4.193394184112549
1697907786696470000,13.869469970703125,-0.5172083377838135,0.5378175973892212,-2.1008872985839844
1697907786715440400,13.8884404296875,-1.3536571264266968,0.2048133760690689,0.5692472457885742
1697907786734410800,13.90741064453125,-1.171912670135498,0.10656175017356873,3.177288055419922
1697907786753380900,13.926380859375,0.21806490421295166,0.07783132791519165,4.104265213012695
1697907786772351200,13.945351318359375,1.0213501453399658,-0.27827954292297363,3.815457344055176
1697907786791321600,13.964321533203124,0.5168673396110535,-0.5124127864837646,3.3648738861083984
1697907786810292000,13.9832919921875,-0.42605894804000854,-0.2676700949668884,1.615372657775879
1697907786829262300,14.002262451171875,-1.0140527486801147,0.038856714963912964,-0.3823862075805664
1697907786848232700,14.021232666015624,-1.2046637535095215,0.32112377882003784,-2.050136089324951
1697907786867203000,14.040203125,-0.8785725831985474,0.3303218185901642,-2.921517848968506
1697907786886173400,14.05917333984375,-0.7168024778366089,0.28651076555252075,-2.6142029762268066
1697907786905143800,14.078143798828124,-0.5474980473518372,0.20619243383407593,-1.268265724182129
1697907786924114200,14.0971142578125,-0.2855728566646576,0.17673778533935547,0.15123844146728516
1697907786943084500,14.11608447265625,0.15655243396759033,-0.010741055011749268,1.2865228652954102
1697907786962054700,14.1350546875,0.5762532353401184,-0.18395394086837769,1.8413572311401367
1697907786981025000,14.15402490234375,0.7398687601089478,-0.25504130125045776,1.8530759811401367
1697907786999995400,14.172995361328125,0.450705885887146,-0.3352263867855072,1.2131071090698242
1697907787018965800,14.1919658203125,-0.08036524057388306,-0.18961864709854126,0.3466758728027344
1697907787037936000,14.21093603515625,-0.2720522880554199,-0.09316927194595337,-0.48371410369873047
1697907787056906500,14.229906494140625,-0.15532243251800537,-0.0650012195110321,-1.1628189086914062
1697907787075876900,14.248876953125,-0.03375887870788574,-0.09006887674331665,-1.4859094619750977
1697907787094847200,14.26784716796875,0.18559962511062622,-0.10222262144088745,-1.2952795028686523
1697907787113817300,14.2868173828125,0.4492540955543518,-0.048402100801467896,-0.9775629043579102
1697907787132787700,14.30578759765625,0.8011165857315063,0.08980703353881836,-0.7080068588256836
1697907787151758000,14.324758056640626,1.214170217514038,0.24464251101016998,-0.6273937225341797
1697907787170728400,14.343728515625,1.654628872871399,0.21154221892356873,-0.89111328125
1697907787189698800,14.36269873046875,2.201807975769043,0.08250251412391663,-1.8350110054016113
1697907787208669200,14.381669189453126,2.5106759071350098,0.06924542784690857,-3.4633259773254395
1697907787227639600,14.4006396484375,2.0269412994384766,0.0024695098400115967,-5.30834436416626
1697907787246610000,14.41960986328125,0.8075155019760132,0.2524069845676422,-6.277536392211914
1697907787265580300,14.438580322265626,-0.7718927264213562,0.42398330569267273,-6.770883560180664
1697907787284550400,14.45755029296875,-2.179450511932373,0.36640608310699463,-7.671469688415527
1697907787303520800,14.476520751953124,-2.28615140914917,0.6554089784622192,-7.660656929016113
1697907787322491100,14.4954912109375,-1.6331596374511719,0.869900643825531,-6.429465293884277
1697907787341461500,14.51446142578125,-1.818376898765564,0.3166577219963074,-3.1454267501831055
1697907787360431900,14.533431884765625,-2.861717939376831,-0.4604777991771698,3.0928993225097656
1697907787379402200,14.55240234375,-1.945289969444275,-1.290553331375122,6.372574806213379
1697907787398372600,14.57137255859375,1.554811954498291,-1.262015461921692,7.902683258056641
1697907787417343000,14.590343017578125,1.7174994945526123,-0.9499365091323853,15.741989135742188
1697907787436313300,14.609313232421876,0.208482027053833,-1.69386887550354,22.94928741455078
1697907787455283700,14.62828369140625,1.315155267715454,-2.2687182426452637,15.791379928588867
1697907787474253800,14.64725390625,1.257300615310669,-0.5279985666275024,12.573102951049805
1697907787493224200,14.66622412109375,-0.12520349025726318,0.6805613040924072,13.056883811950684
1697907787512194600,14.685194580078125,-3.1586947441101074,0.3425482213497162,15.78436279296875
1697907787531165000,14.7041650390625,-5.332286834716797,0.25888657569885254,19.779773712158203
1697907787550135300,14.72313525390625,-2.3854217529296875,-0.18895334005355835,20.152002334594727
1697907787569105700,14.742105712890625,-0.131736159324646,-0.013453200459480286,16.1585636138916
1697907787588076000,14.761075927734375,1.2519360780715942,1.1069141626358032,10.568723678588867
1697907787607046400,14.78004638671875,3.3249306678771973,0.8036581873893738,2.97371768951416
1697907787626016800,14.799016845703125,5.254172325134277,-0.46441298723220825,-4.147768497467041
1697907787644987000,14.81798681640625,6.052591323852539,-1.0782363414764404,-8.29076099395752
1697907787663957200,14.836957275390626,6.45225191116333,0.1253734529018402,-10.347044944763184
1697907787682927600,14.855927734375,7.566341400146484,1.009010910987854,-14.859684944152832
1697907787701898000,14.87489794921875,7.425306797027588,0.3327935039997101,-19.09151268005371
1697907787720868400,14.893868408203126,2.715657949447632,-0.23011523485183716,-24.61248016357422
1697907787739838700,14.912838623046875,1.1693226099014282,-1.3416775465011597,-19.97136878967285
1697907787758809000,14.93180908203125,-2.870910167694092,0.2652164399623871,-13.879318237304688
1697907787777779500,14.950779541015624,-2.9535224437713623,2.0614452362060547,-9.549302101135254
1697907787796749600,14.96974951171875,-0.2150232493877411,1.0216882228851318,-8.329020500183105
1697907787815720000,14.988719970703125,-0.4450681507587433,0.5123952627182007,-6.803589344024658
1697907787834690300,15.007690185546876,-0.6226764917373657,-0.0986141562461853,-5.392168045043945
1697907787853660700,15.02666064453125,-0.20949432253837585,-0.0989236831665039,-4.676507949829102
1697907787872631000,15.045631103515625,0.5736017227172852,0.3392341434955597,-4.797374725341797
1697907787891601400,15.064601318359376,1.2481313943862915,0.7441242933273315,-6.28591775894165
1697907787910571800,15.08357177734375,1.2438604831695557,0.5927460193634033,-8.496893882751465
1697907787929542100,15.102542236328125,0.9726493954658508,0.36123621463775635,-10.278738021850586
1697907787948512500,15.121512451171874,0.661678671836853,0.32232731580734253,-10.887316703796387
1697907787967483000,15.14048291015625,0.5037705898284912,0.1353546679019928,-10.443704605102539
1697907787986453200,15.159453369140625,0.9761576652526855,0.22667190432548523,-10.294596672058105
1697907788005423400,15.17842333984375,2.3642313480377197,1.3864878416061401,-10.91732120513916
1697907788024393700,15.197393798828125,3.751772165298462,2.3367087841033936,-11.501136779785156
1697907788043364000,15.216364013671875,2.6917338371276855,1.5088990926742554,-10.242999076843262
1697907788062334500,15.23533447265625,-0.05789309740066528,0.09450867772102356,-7.771759033203125
1697907788081304800,15.254304931640625,-5.812003135681152,-2.5751028060913086,-3.3074264526367188
1697907788100275200,15.273275146484375,3.713815689086914,-4.6387786865234375,3.7538070678710938
1697907788119245600,15.29224560546875,2.083944797515869,-9.905827522277832,51.27140808105469
1697907788138216000,15.3112158203125,0.6794805526733398,-0.338995099067688,69.02357482910156
1697907788157186000,15.33018603515625,6.949862480163574,0.4004892110824585,46.32185745239258
1697907788176156400,15.349156494140624,2.8451685905456543,1.8439397811889648,20.42251205444336
1697907788195126800,15.368126708984375,2.5468521118164062,4.268462181091309,16.703540802001953
1697907788214097200,15.38709716796875,-0.44369208812713623,0.3137737214565277,12.852998733520508
1697907788233067500,15.406067626953124,2.113455057144165,-1.3846567869186401,6.242433547973633
1697907788252038000,15.425037841796875,1.8442256450653076,-0.601668655872345,0.5118293762207031
1697907788271008300,15.44400830078125,3.5248098373413086,-0.9610645174980164,-3.853581428527832
1697907788289978600,15.462978515625,3.9543070793151855,-1.2731455564498901,-8.46353530883789
1697907788308948700,15.48194873046875,4.091797828674316,-0.7439056038856506,-11.743030548095703
1697907788327919000,15.500919189453125,5.3415021896362305,-0.028180360794067383,-14.813175201416016
1697907788346889500,15.519889404296874,4.230050086975098,0.3647494614124298,-18.94603729248047
1697907788365859800,15.53885986328125,2.3669183254241943,1.0892961025238037,-21.024511337280273
1697907788384830200,15.557830322265625,-0.5764214396476746,2.1302502155303955,-17.222843170166016
1697907788403800600,15.576800537109374,-3.475186824798584,3.3220856189727783,-14.405561447143555
1697907788422771000,15.59577099609375,-4.900937080383301,4.124838829040527,-10.911025047302246
1697907788441741300,15.6147412109375,-3.189711809158325,2.4077534675598145,-10.140244483947754
1697907788460711700,15.633711669921874,-2.3606834411621094,0.2606862187385559,-10.287046432495117
1697907788479682000,15.65268212890625,-2.2277607917785645,-1.1379520893096924,-8.950589179992676
1697907788498652400,15.67165234375,-0.9764263033866882,-1.686870813369751,-8.254212379455566
1697907788517622500,15.69062255859375,0.8877226114273071,-1.5607824325561523,-8.087030410766602
1697907788536593000,15.709593017578126,0.9660990238189697,-1.3854358196258545,-8.568228721618652
1697907788555563300,15.728563232421875,-0.09283852577209473,-1.5030795335769653,-8.794267654418945
1697907788574533600,15.74753369140625,-2.9925882816314697,-0.5728325843811035,-7.227758407592773
1697907788593504000,15.76650390625,-4.05866813659668,-0.42967870831489563,-5.968557357788086
1697907788612474400,15.785474365234375,5.609783172607422,-1.6286044120788574,-3.6697354316711426
1697907788631444700,15.80444482421875,-5.117727279663086,-4.000129699707031,9.520461082458496
1697907788650415000,15.8234150390625,-3.7160000801086426,0.0875961035490036,33.056556701660156
1697907788669385200,15.84238525390625,9.856576919555664,8.594841003417969,53.51582717895508
1697907788688355600,15.86135546875,2.1533987522125244,-2.061391830444336,23.49299430847168
1697907788707326000,15.880325927734376,2.124770402908325,-1.7810783386230469,11.198168754577637
1697907788726296300,15.89929638671875,2.1018741130828857,0.3000866174697876,2.9748783111572266
1697907788745266700,15.9182666015625,0.05396550893783569,-1.0861009359359741,-1.8010540008544922
1697907788764237000,15.937237060546876,-0.4374411404132843,-0.9967163801193237,-3.8759093284606934
1697907788783207400,15.95620751953125,-1.674379587173462,0.7768527865409851,-5.755961894989014
1697907788802177800,15.975177734375,-0.8364843130111694,1.2910895347595215,-8.26723575592041
1697907788821148000,15.99414794921875,0.12018823623657227,0.91532301902771,-7.646737098693848
1697907788840118300,16.0131181640625,0.166406512260437,0.34268102049827576,-6.358407020568848
1697907788859088600,16.032088623046874,1.3129419088363647,0.05656886100769043,-6.1675591468811035
1697907788878059000,16.05105908203125,3.384554862976074,-0.6963562965393066,-6.622106075286865
1697907788897029400,16.070029296875,3.5524742603302,-0.9596848487854004,-6.429249286651611
1697907788915999700,16.088999755859376,2.5672390460968018,-0.027469903230667114,-5.163882732391357
1697907788934970000,16.10797021484375,1.3872532844543457,0.46887850761413574,-3.3441128730773926
1697907788953940500,16.1269404296875,-0.8410686254501343,0.40111982822418213,1.2390270233154297
1697907788972910800,16.145910888671875,-2.7185282707214355,0.3258514106273651,8.16269588470459
1697907788991881200,16.164881103515626,-1.8209257125854492,0.2602667212486267,9.834635734558105
1697907789010851300,16.183851318359373,0.6131709814071655,0.8424042463302612,8.429352760314941
1697907789029821700,16.20282177734375,0.6431494951248169,1.2582885026931763,4.070995330810547
1697907789048792000,16.2217919921875,1.3029375076293945,0.46676886081695557,0.08004188537597656
1697907789067762400,16.240762451171875,1.2003272771835327,-0.37220603227615356,-2.4504542350769043
1697907789086732800,16.25973291015625,0.9361076354980469,-0.6989547610282898,-3.7918925285339355
1697907789105703200,16.278703125,0.2614675760269165,-0.602065920829773,-4.307955741882324
1697907789124673500,16.297673583984373,-0.7338947057723999,-0.0782434344291687,-3.7083563804626465
1697907789143644000,16.316643798828125,-1.4287962913513184,0.2923402786254883,-1.5307331085205078
1697907789162614000,16.335614013671876,-1.314354419708252,0.28891611099243164,0.6874418258666992
1697907789181584400,16.35458447265625,-0.4915144145488739,0.16957339644432068,2.2637243270874023
1697907789200554800,16.3735546875,0.4045135974884033,-0.21230357885360718,3.382078170776367
1697907789219525000,16.392525146484374,0.778849720954895,-0.8057337403297424,3.335604667663574
1697907789238495500,16.41149560546875,0.44349175691604614,-0.9945011138916016,2.281327247619629
1697907789257465900,16.4304658203125,-0.29201245307922363,-0.5139501690864563,0.8643102645874023
1697907789276436200,16.449436279296876,-0.6185228228569031,-0.023580431938171387,-0.6159534454345703
1697907789295406600,16.468406494140623,-0.5019862055778503,0.09182250499725342,-1.700066089630127
1697907789314376700,16.487376708984375,-0.3389107584953308,-0.08339345455169678,-2.1851611137390137
1697907789333347000,16.50634716796875,-0.2954038381576538,-0.29793184995651245,-1.8504915237426758
1697907789352317400,16.5253173828125,-0.35536521673202515,-0.2929322123527527,-0.9081964492797852
1697907789371287800,16.544287841796876,-0.24339723587036133,-0.06050330400466919,0.10848426818847656
1697907789390258200,16.563258056640624,0.036668241024017334,-0.05725735425949097,0.9077062606811523
1697907789409228500,16.582228515625,0.3806253671646118,-0.04520583152770996,1.4729156494140625
1697907789428199000,16.601198974609375,0.6153960227966309,-0.16892766952514648,1.3777751922607422
1697907789447169300,16.620169189453126,0.7767826914787292,-0.34367382526397705,0.697789192199707
1697907789466139600,16.6391396484375,0.7525586485862732,-0.2502678632736206,0.053847312927246094
1697907789485110000,16.658110107421876,0.7807102799415588,-0.021625101566314697,-0.5531301498413086
1697907789504080400,16.677080322265624,0.8685684204101562,0.20434144139289856,-1.1529769897460938
1697907789523050500,16.696050537109375,0.8950916528701782,0.26724469661712646,-1.5064430236816406
1697907789542020900,16.715020751953126,1.1350469589233398,0.2780841290950775,-1.7461466789245605
1697907789560991200,16.7339912109375,1.7292125225067139,0.2518467307090759,-2.181828498840332
1697907789579961600,16.752961669921874,2.2672371864318848,0.05854478478431702,-3.0345888137817383
1697907789598932000,16.771931884765625,2.3336896896362305,-0.055498749017715454,-4.270950794219971
1697907789617902300,16.79090234375,1.3517658710479736,-0.06982690095901489,-5.743020534515381
1697907789636872700,16.809872802734375,-0.7988981008529663,0.6499613523483276,-5.751175880432129
1697907789655842800,16.8288427734375,-2.7729389667510986,1.1456066370010376,-5.801734447479248
1697907789674813200,16.847813232421874,-3.8114254474639893,1.0379834175109863,-6.425021171569824
1697907789693783600,16.866783447265625,-3.3441033363342285,1.001924991607666,-6.120297908782959
1697907789712754000,16.88575390625,0.20961010456085205,1.036479115486145,-5.184667110443115
1697907789731724300,16.904724365234376,1.4921445846557617,-0.5864866971969604,-1.4683809280395508
1697907789750694700,16.923694580078124,-4.360966682434082,-1.3740227222442627,7.08382511138916
1697907789769665000,16.9426650390625,-5.02451229095459,-0.7084844708442688,8.623041152954102
1697907789788635400,16.961635498046874,0.6275482177734375,-1.2472625970840454,15.79434585571289
1697907789807605500,16.98060546875,1.4622881412506104,-2.7772555351257324,23.671545028686523
1697907789826576000,16.999575927734377,0.9535384178161621,-0.910359799861908,16.083450317382812
1697907789845546200,17.018546142578124,1.3046730756759644,0.5192610621452332,11.76479721069336
1697907789864516600,17.0375166015625,0.017427444458007812,1.343498945236206,11.194894790649414
1697907789883487000,17.056487060546875,-1.519924521446228,1.6054248809814453,13.2824068069458
1697907789902457300,17.075457275390626,-2.2624995708465576,1.0920484066009521,16.429471969604492
1697907789921427700,17.094427734375,-1.0235224962234497,0.7626393437385559,16.403545379638672
1697907789940398000,17.113398193359377,2.412014961242676,0.3971590995788574,12.055879592895508
1697907789959368400,17.132368408203124,3.7348217964172363,0.37893837690353394,6.41009521484375
1697907789978338800,17.1513388671875,2.431783676147461,-0.07267290353775024,0.3127574920654297
1697907789997309200,17.17030908203125,0.9005579948425293,-0.6586315035820007,-4.497801780700684
1697907790016279300,17.189279296875,1.1320258378982544,-0.6954228281974792,-7.032863616943359
1697907790035249700,17.208249755859374,2.61024808883667,-0.00472751259803772,-8.849580764770508
1697907790054220000,17.227219970703125,3.653500556945801,0.09185004234313965,-12.515748977661133
1697907790073190400,17.2461904296875,3.0528981685638428,-0.23526060581207275,-18.57244873046875
1697907790092160800,17.265160888671875,3.1835014820098877,-0.4633747935295105,-22.57830810546875
1697907790111131100,17.284131103515627,4.629772186279297,-0.4191281795501709,-21.614151000976562
1697907790130101500,17.3031015625,1.7504914999008179,0.9646831154823303,-16.01995086669922
1697907790149072000,17.32207177734375,-0.9069733023643494,2.4113247394561768,-12.04998779296875
1697907790168042000,17.3410419921875,-2.388798952102661,2.312276840209961,-8.54658317565918
1697907790187012400,17.360012451171876,-1.4810370206832886,0.9748905897140503,-6.144604206085205
1697907790205982700,17.378982666015624,-1.2056152820587158,0.3818204402923584,-4.679736614227295
1697907790224953000,17.397953125,-1.2514419555664062,0.18296578526496887,-4.022654056549072
1697907790243923500,17.41692333984375,-1.006588101387024,0.0300409197807312,-4.563907623291016
1697907790262893800,17.435893798828126,0.033154845237731934,-0.10303428769111633,-5.730982303619385
1697907790281864200,17.4548642578125,0.936761736869812,-0.32127055525779724,-7.760983943939209
1697907790300834600,17.47383447265625,1.1729021072387695,-0.3462202548980713,-10.353912353515625
1697907790319804700,17.4928046875,2.2444264888763428,0.03344792127609253,-12.649165153503418
1697907790338775000,17.511775146484375,3.9190709590911865,0.8872597217559814,-13.516641616821289
1697907790357745400,17.530745361328126,4.533669948577881,1.0286129713058472,-13.003227233886719
1697907790376715800,17.5497158203125,4.868307113647461,0.13785004615783691,-10.58310317993164
1697907790395686100,17.56868603515625,1.9249175786972046,-1.5238661766052246,-7.378437042236328
1697907790414656500,17.587656494140624,-1.228155255317688,-6.621065616607666,-1.952622890472412
1697907790433627000,17.606626953125,9.036462783813477,-12.119318962097168,33.4787712097168
1697907790452597200,17.62559716796875,-11.920463562011719,0.08626806735992432,69.13160705566406
1697907790471567600,17.644567626953126,6.365573406219482,5.541345596313477,46.53300094604492
1697907790490537700,17.663537841796874,6.183850288391113,-0.07890677452087402,22.1094970703125
1697907790509508000,17.682508056640625,2.153740882873535,4.030860900878906,16.92635726928711
1697907790528478500,17.701478515625,-1.7229571342468262,3.5058059692382812,18.039249420166016
1697907790547448800,17.72044873046875,-0.5779505968093872,-0.9293369054794312,18.494762420654297
1697907790566419200,17.739419189453123,2.190521240234375,-0.6524237394332886,10.290812492370605
1697907790585389600,17.7583896484375,3.607701063156128,0.7632960081100464,2.9922971725463867
1697907790604360000,17.77735986328125,4.6103386878967285,0.7280732989311218,-2.0837345123291016
1697907790623330300,17.796330322265625,4.635072231292725,-0.02284759283065796,-6.689844608306885
1697907790642300400,17.815300537109376,4.207125186920166,-0.639528751373291,-10.780927658081055
1697907790661270800,17.834270751953124,3.3080756664276123,-1.078554630279541,-15.669955253601074
1697907790680241200,17.8532412109375,2.1487622261047363,-1.6187642812728882,-23.313514709472656
1697907790699211500,17.87221142578125,2.5954718589782715,-1.6615036725997925,-24.683246612548828
1697907790718182000,17.891181884765626,3.698827028274536,-1.2814631462097168,-17.738222122192383
1697907790737152300,17.91015234375,-0.2941507399082184,1.1556761264801025,-12.600183486938477
1697907790756122600,17.92912255859375,-2.3186142444610596,2.6879215240478516,-9.686073303222656
1697907790775093000,17.948093017578124,-3.855252504348755,3.250596046447754,-6.965062618255615
1697907790794063000,17.96706298828125,-1.9275695085525513,1.4496866464614868,-7.223787307739258
1697907790813033500,17.986033447265626,-1.6706303358078003,0.8875019550323486,-7.049762725830078
1697907790832003800,18.00500390625,-0.5758056044578552,0.6561411619186401,-7.171926498413086
1697907790850974200,18.02397412109375,0.5819870233535767,0.4988914430141449,-7.88572883605957
1697907790869944600,18.042944580078125,2.1845192909240723,-0.09555983543395996,-8.941166877746582
1697907790888915000,18.0619150390625,2.2014968395233154,-0.10369187593460083,-8.71431827545166
1697907790907885300,18.08088525390625,2.9793999195098877,-0.17019537091255188,-8.89816951751709
1697907790926855700,18.099855712890626,2.719024419784546,-0.4304395914077759,-9.83580493927002
1697907790945826000,18.118825927734374,4.197350025177002,-1.0068435668945312,-9.813532829284668
1697907790964796400,18.13779638671875,2.0316810607910156,-1.4262816905975342,-5.919440746307373
1697907790983766500,18.1567666015625,-8.829261779785156,-3.116654634475708,10.29210090637207
1697907791002737000,18.17573681640625,-9.36630916595459,3.2219748497009277,43.36767578125
1697907791021707300,18.194707275390623,7.73249626159668,4.681770324707031,55.30656433105469
1697907791040677600,18.213677734375,-2.454160213470459,-4.98429536819458,16.669157028198242
1697907791059648000,18.23264794921875,-1.9526368379592896,0.631220281124115,7.002617835998535
1697907791078618400,18.251618408203125,-0.9134336709976196,0.3948155343532562,-2.8895936012268066
1697907791097588700,18.270588623046876,-1.7797033786773682,-0.7327839136123657,-2.664963722229004
1697907791116559000,18.28955908203125,-3.048032283782959,0.28913772106170654,-4.622673034667969
1697907791135529200,18.308529296875,0.3194480538368225,1.2474405765533447,-7.369253635406494
1697907791154499600,18.32749951171875,1.6696820259094238,0.8585224747657776,-6.569265365600586
1697907791173470000,18.346469970703126,1.8006824254989624,0.591905951499939,-5.81835412979126
1697907791192440300,18.3654404296875,2.669942617416382,0.4463850259780884,-6.210466384887695
1697907791211410700,18.38441064453125,3.8512282371520996,-0.16750743985176086,-6.868535041809082
1697907791230381000,18.403381103515624,3.445685386657715,-0.7524438500404358,-8.026844024658203
1697907791249351400,18.422351318359375,2.26960825920105,-0.8517836332321167,-6.8704071044921875
1697907791268321800,18.44132177734375,-1.0375990867614746,-1.4338020086288452,-0.3903331756591797
1697907791287292000,18.4602919921875,-3.5074872970581055,-0.7658886313438416,9.460853576660156
1697907791306262300,18.47926220703125,-5.463164806365967,1.0778038501739502,13.194024085998535
1697907791325232600,18.498232666015625,-1.1082366704940796,0.3564511239528656,8.653698921203613
1697907791344203000,18.517203125,-0.5460405945777893,-0.2687343955039978,5.087874412536621
1697907791363173400,18.53617333984375,0.05589425563812256,0.2869885563850403,-0.43189239501953125
1697907791382143700,18.555143798828126,-0.40080082416534424,0.6710047721862793,-3.7878198623657227
1697907791401114000,18.574114013671874,-0.13168831169605255,0.4839281141757965,-5.650851249694824
1697907791420084500,18.59308447265625,-0.01595909520983696,-0.07276234030723572,-5.605327129364014
1697907791439054800,18.612054931640625,-0.6787859201431274,0.14461976289749146,-3.661464214324951
1697907791458025000,18.63102490234375,-1.5037848949432373,0.42640891671180725,-1.6333227157592773
1697907791476995300,18.649995361328124,-1.634199619293213,0.6803870797157288,0.6809587478637695
1697907791495965700,18.668965576171875,-0.5409984588623047,0.46805480122566223,2.7774600982666016
1697907791514936000,18.68793603515625,0.8879290223121643,-0.01270708441734314,3.726839065551758
1697907791533906400,18.706906494140625,1.3518511056900024,-0.39366886019706726,3.495415687561035
1697907791552876800,18.725876708984377,0.6127058267593384,-0.6434881687164307,2.224201202392578
1697907791571847200,18.74484716796875,-0.3691447377204895,-0.49612459540367126,0.5027923583984375
1697907791590817500,18.763817626953124,-0.9344496726989746,-0.08341601490974426,-1.0128364562988281
1697907791609787600,18.78278759765625,-0.8884434103965759,0.12781906127929688,-1.879697322845459
1697907791628758000,18.801758056640626,-0.7206336259841919,0.17955638468265533,-2.1038570404052734
1697907791647728400,18.820728271484374,-0.5213398933410645,0.20136457681655884,-1.6315546035766602
1697907791666698800,18.83969873046875,-0.28880074620246887,0.1767786294221878,-0.8575162887573242
1697907791685669000,18.858669189453124,0.16523215174674988,0.043257445096969604,-0.12929916381835938
1697907791704639500,18.877639404296875,0.5412077903747559,-0.12388530373573303,0.6265058517456055
1697907791723609900,18.89660986328125,0.7143952250480652,-0.2415871024131775,1.2777833938598633
1697907791742580200,18.915580322265626,0.5989304780960083,-0.27419722080230713,1.4518985748291016
1697907791761550600,18.934550537109374,0.4316970109939575,-0.09493225812911987,0.8438339233398438
1697907791780520700,18.953520751953125,0.4449452757835388,-0.04048287868499756,0.052771568298339844
1697907791799491000,18.972490966796876,0.44460076093673706,-0.04591664671897888,-0.49783897399902344
1697907791818461400,18.99146142578125,0.30100560188293457,0.006051957607269287,-0.7585897445678711
1697907791837431800,19.010431884765627,0.29343312978744507,0.028162896633148193,-0.9545602798461914
1697907791856402200,19.029402099609374,0.4328126311302185,0.0025933384895324707,-1.0451173782348633
1697907791875372500,19.04837255859375,0.7531716823577881,-0.04424631595611572,-1.009383201599121
1697907791894343000,19.067343017578125,1.2470777034759521,-0.07585975527763367,-0.9388599395751953
1697907791913313300,19.086313232421876,1.6535375118255615,-0.1444491147994995,-0.9557723999023438
1697907791932283600,19.10528369140625,2.0964465141296387,-0.18700599670410156,-1.8088645935058594
1697907791951253800,19.124253662109375,2.242802143096924,-0.007512897253036499,-3.271994113922119
1697907791970224000,19.14322412109375,1.1877968311309814,0.29474878311157227,-4.709251403808594
1697907791989194500,19.162194580078125,-1.031454086303711,0.5741917490959167,-5.5280938148498535
1697907792008164900,19.181164794921877,-3.404890537261963,0.36610209941864014,-5.8034138679504395
1697907792027135200,19.20013525390625,-4.263726234436035,-0.03649723529815674,-6.0723419189453125
1697907792046105600,19.219105712890624,-3.0676651000976562,-0.507980465888977,-5.721601486206055
1697907792065076000,19.238075927734375,-0.6071304082870483,-1.5145224332809448,-4.729393005371094
1697907792084046300,19.25704638671875,-0.4103412628173828,-1.9363867044448853,-1.2955026626586914
1697907792103016400,19.276016357421874,-2.9254229068756104,0.06446373462677002,4.223424911499023
1697907792121986800,19.29498681640625,-2.048212766647339,0.9663872718811035,11.066790580749512
1697907792140957200,19.313957275390624,0.3484776020050049,0.6488598585128784,17.931583404541016
1697907792159927600,19.332927490234376,1.3004658222198486,-1.1393071413040161,24.780757904052734
1697907792178898000,19.35189794921875,1.9969775676727295,-2.9196062088012695,17.899822235107422
1697907792197868300,19.370868408203126,1.337156057357788,-0.4244980812072754,14.045036315917969
1697907792216838700,19.389838623046874,0.28486478328704834,0.9664881825447083,12.774134635925293
1697907792235809000,19.40880908203125,-0.28142690658569336,0.2571140229701996,12.7313232421875
1697907792254779400,19.427779296875,0.6181966066360474,0.17098507285118103,10.036383628845215
1697907792273749800,19.446749755859376,1.557539939880371,0.879223108291626,6.116698265075684
1697907792292719900,19.465719970703127,1.7038956880569458,0.9612806439399719,3.0037851333618164
1697907792311690200,19.484690185546874,1.4556000232696533,0.6777908802032471,-0.5005979537963867
1697907792330660600,19.50366064453125,1.0416052341461182,0.6496217250823975,-4.178590297698975
1697907792349631000,19.522630859375,0.22351551055908203,0.840309739112854,-6.810968399047852
1697907792368601300,19.541601318359376,0.31729018688201904,0.9364142417907715,-8.506897926330566
1697907792387571700,19.56057177734375,1.1718153953552246,0.5273056030273438,-10.511035919189453
1697907792406542000,19.5795419921875,1.04708731174469,0.047499626874923706,-15.83515739440918
1697907792425512400,19.598512451171874,1.022592544555664,-0.6838293075561523,-22.30207061767578
1697907792444482600,19.617482666015626,4.603829860687256,0.0549931526184082,-21.993499755859375
1697907792463453000,19.636452880859373,3.724170684814453,1.101271152496338,-16.477590560913086
1697907792482423300,19.65542333984375,0.5266460180282593,1.5770080089569092,-12.880250930786133
1697907792501393700,19.6743935546875,-2.6152760982513428,1.3491427898406982,-9.41522216796875
1697907792520364000,19.693364013671875,-2.507417678833008,0.5086854696273804,-6.238722801208496
1697907792539334400,19.71233447265625,-2.1740870475769043,-0.279274582862854,-5.12337064743042
1697907792558304800,19.7313046875,-1.7170604467391968,-0.28419768810272217,-4.31260871887207
1697907792577275100,19.750275146484373,-0.09248611330986023,0.039513975381851196,-4.606746673583984
1697907792596245200,19.769245361328124,2.2646143436431885,0.12177309393882751,-6.202284336090088
1697907792615215600,19.788215576171876,4.396583557128906,-0.12699484825134277,-8.757000923156738
1697907792634186000,19.80718603515625,5.656882286071777,-0.8778812885284424,-12.091341018676758
1697907792653156400,19.82615625,4.33780574798584,-0.868468165397644,-13.79766845703125
1697907792672126700,19.845126708984374,1.215372085571289,-0.004263460636138916,-8.909210205078125
1697907792691097000,19.86409716796875,0.6824921369552612,-0.022678375244140625,-2.7620739936828613
1697907792710067500,19.8830673828125,3.455130100250244,-3.826380491256714,5.491401672363281
1697907792729037800,19.902037841796876,6.203244209289551,-0.671531617641449,41.54542922973633
1697907792748008200,19.92100830078125,-8.408149719238281,-0.15733858942985535,68.8705062866211
1697907792766978600,19.939978515625,2.96185040473938,-2.0861589908599854,34.91709899902344
1697907792785948700,19.95894873046875,4.4737629890441895,-0.7320848703384399,17.141517639160156
1697907792804919000,19.9779189453125,3.644754409790039,1.4913889169692993,14.955902099609375
1697907792823889400,19.996889404296876,-3.1821887493133545,0.8276082277297974,19.695510864257812
1697907792842859800,20.01585986328125,-1.3728257417678833,-0.6139508485794067,22.845539093017578
1697907792861830100,20.034830078125,2.133824110031128,-0.45366722345352173,13.836383819580078
1697907792880800500,20.053800537109375,3.851613759994507,-0.06801387667655945,3.297107696533203
1697907792899771000,20.07277099609375,5.8172407150268555,0.41391000151634216,-2.8872413635253906
1697907792918741000,20.091740966796873,8.043519973754883,1.0361042022705078,-6.503440856933594
1697907792937711400,20.11071142578125,7.053596496582031,0.18146301805973053,-11.128002166748047
1697907792956681700,20.129681640625,4.872436046600342,-0.7905745506286621,-14.324625015258789
1697907792975652000,20.148652099609375,2.8226726055145264,-1.5896921157836914,-19.29475212097168
1697907792994622500,20.16762255859375,0.39146727323532104,-2.4097230434417725,-24.249792098999023
1697907793013592800,20.1865927734375,0.21545939147472382,-1.6580376625061035,-19.196796417236328
1697907793032563200,20.205563232421873,-2.06376314163208,1.3590689897537231,-14.632447242736816
1697907793051533600,20.224533447265625,-2.4020705223083496,2.7991585731506348,-10.943503379821777
1697907793070503700,20.243503662109376,-1.9040217399597168,2.366718053817749,-9.514330863952637
1697907793089474000,20.26247412109375,-2.8847503662109375,1.5642049312591553,-7.815213680267334
1697907793108444400,20.2814443359375,-2.224104642868042,1.1055773496627808,-7.1346821784973145
1697907793127414800,20.300414794921874,-1.3586747646331787,1.2572987079620361,-7.1593732833862305
1697907793146385200,20.31938525390625,0.3755849599838257,0.5603282451629639,-8.236077308654785
1697907793165355500,20.33835546875,1.6545238494873047,0.28654569387435913,-8.63741683959961
1697907793184326000,20.357325927734376,1.9468114376068115,0.08313073217868805,-9.207613945007324
1697907793203296300,20.376296142578123,1.8527345657348633,-0.282501220703125,-9.877898216247559
1697907793222266600,20.3952666015625,1.3753684759140015,-0.7539136409759521,-10.652259826660156
1697907793241237000,20.414237060546874,0.8084009885787964,-1.4064334630966187,-11.094806671142578
1697907793260207400,20.433207275390625,2.0697762966156006,-1.6302481889724731,-9.161052703857422
1697907793279177500,20.452177490234376,-2.213042974472046,-2.9577343463897705,0.776057243347168
1697907793298147800,20.47114794921875,-7.35806131362915,0.23800688982009888,31.1265869140625
1697907793317118200,20.4901181640625,-0.3347569704055786,-0.15204009413719177,54.51252746582031
1697907793336088600,20.509088623046875,9.52270221710205,2.3716742992401123,36.768585205078125
1697907793355059000,20.528058837890626,-1.8771164417266846,1.8337076902389526,11.010153770446777
1697907793374029300,20.547029296875,-1.9042822122573853,-0.7382529377937317,-0.8792543411254883
1697907793392999700,20.565999755859377,-1.447583794593811,-2.009965419769287,-2.893899440765381
1697907793411969800,20.5849697265625,-0.9751793742179871,-1.7839667797088623,-4.768004894256592
1697907793430940200,20.603940185546875,-2.1441333293914795,-0.783837080001831,-6.539128303527832
1697907793449910500,20.62291064453125,0.7191829681396484,0.38113123178482056,-7.014683246612549
1697907793468881000,20.641880859375,2.3552937507629395,0.5598927140235901,-7.352182388305664
1697907793487851300,20.660851318359374,1.9917546510696411,-0.5586906671524048,-6.661880016326904
1697907793506821600,20.679821533203125,1.9342577457427979,-0.6453089714050293,-5.529885768890381
1697907793525792000,20.6987919921875,2.7355868816375732,-0.44170910120010376,-4.8781538009643555
1697907793544762400,20.717762451171875,2.871105670928955,-0.07225501537322998,-4.219230651855469
1697907793563732500,20.736732421875,2.034623384475708,0.09432804584503174,-3.460554599761963
1697907793582702800,20.755702880859374,0.9365863800048828,0.10584262013435364,-1.8482880592346191
1697907793601673200,20.774673095703125,-0.5538520812988281,0.16887977719306946,1.6783218383789062
1697907793620643600,20.7936435546875,-2.4285786151885986,0.2525804340839386,6.528468132019043
1697907793639614000,20.812614013671876,-1.5257683992385864,0.3113859295845032,8.702019691467285
1697907793658584300,20.831584228515624,0.07026898860931396,0.24873130023479462,7.777061462402344
1697907793677554700,20.8505546875,-0.18191002309322357,0.06169334053993225,3.3748226165771484
1697907793696525000,20.869525146484374,-0.0578695684671402,-0.034450650215148926,-0.38483333587646484
1697907793715495400,20.888495361328125,0.4449206590652466,-0.04719597101211548,-3.3738150596618652
1697907793734465800,20.9074658203125,0.8331839442253113,-0.04683181643486023,-4.8353071212768555
1697907793753436200,20.926436279296876,0.3655437231063843,0.14721208810806274,-4.765600681304932
1697907793772406300,20.94540625,-0.750460684299469,0.14064188301563263,-2.981322765350342
1697907793791376600,20.964376708984375,-1.588736891746521,0.28773584961891174,-0.06364822387695312
1697907793810347000,20.983346923828126,-1.3936889171600342,0.3866339325904846,1.9671001434326172
1697907793829317400,21.0023173828125,-0.5866014957427979,-0.08349385857582092,2.5266265869140625
1697907793848287700,21.021287841796877,0.3345605134963989,-0.4788360297679901,2.4106597900390625
1697907793867258000,21.040258056640624,0.28417137265205383,-0.3895115554332733,2.153040885925293
1697907793886228500,21.059228515625,-0.19298793375492096,-0.29367804527282715,1.6641130447387695
1697907793905198600,21.078198486328127,-0.6609088182449341,-0.10862833261489868,0.6450090408325195
1697907793924169000,21.0971689453125,-0.5987970232963562,0.04314085841178894,-0.8837337493896484
1697907793943139300,21.116139404296874,-0.46560144424438477,0.09480056166648865,-2.070000171661377
1697907793962109700,21.135109619140625,-0.5301071405410767,0.12654009461402893,-2.2812252044677734
1697907793981080000,21.154080078125,-0.6730003952980042,0.15496310591697693,-1.5557937622070312
1697907794000050400,21.173050537109376,-0.7647810578346252,0.05334651470184326,-0.6709699630737305
1697907794019020800,21.192020751953127,-0.3925676941871643,-0.1405619978904724,0.21047115325927734
1697907794037991200,21.2109912109375,-0.19092848896980286,-0.2681826651096344,0.8184947967529297
1697907794056961500,21.22996142578125,0.04626449942588806,-0.3544449806213379,1.1010503768920898
1697907794075931600,21.248931640625,0.1692231297492981,-0.24355566501617432,1.1497211456298828
1697907794094902000,21.267902099609376,0.08965092897415161,-0.11391511559486389,0.7414894104003906
1697907794113872400,21.286872314453124,-0.1281360387802124,0.035194963216781616,0.12966537475585938
1697907794132842800,21.3058427734375,-0.28215694427490234,0.2736332416534424,-0.5500650405883789
1697907794151813000,21.324813232421874,-0.2195168137550354,0.3272668421268463,-1.0128974914550781
1697907794170783500,21.343783447265626,-0.03490418195724487,0.3075183033943176,-1.1144952774047852
1697907794189753900,21.36275390625,0.4459357261657715,0.2709674835205078,-1.1423053741455078
1697907794208724200,21.38172412109375,1.3320807218551636,0.11844030022621155,-1.2649517059326172
1697907794227694600,21.400694580078124,2.2138850688934326,0.011771142482757568,-1.4815797805786133
1697907794246664700,21.419664794921875,2.613239288330078,-0.1084510087966919,-2.050596237182617
1697907794265635000,21.438635009765626,2.2466347217559814,-0.19274699687957764,-3.4207777976989746
1697907794284605400,21.45760546875,1.1031320095062256,-0.19440940022468567,-5.092297554016113
1697907794303575800,21.476575927734373,-0.1817796230316162,0.03307047486305237,-6.409420490264893
1697907794322546200,21.495546142578124,-2.1029341220855713,0.33957138657569885,-7.345274448394775
1697907794341516500,21.5145166015625,-3.874859094619751,0.6459749937057495,-7.398138046264648
1697907794360487000,21.53348681640625,-4.07090425491333,1.2341561317443848,-6.676290035247803
1697907794379457300,21.552457275390626,-1.65846848487854,1.518699288368225,-5.6411285400390625
1697907794398427600,21.571427734375,-1.228764533996582,-0.16975636780261993,-0.8091564178466797
1697907794417397800,21.590397705078125,-2.3065714836120605,0.17743398249149323,7.766813278198242
1697907794436368100,21.6093681640625,-2.601524591445923,1.024708867073059,12.420876502990723
1697907794455338500,21.62833837890625,1.5759789943695068,0.3868524432182312,19.651531219482422
1697907794474308900,21.647308837890623,2.5599985122680664,-3.3355517387390137,25.923358917236328
1697907794493279200,21.666279296875,3.4163150787353516,-2.294769763946533,17.13409423828125
1697907794512249600,21.68524951171875,1.9109076261520386,-0.0925881564617157,12.833285331726074
1697907794531220000,21.704219970703125,0.40428626537323,0.569216787815094,13.293618202209473
1697907794550190300,21.7231904296875,-1.1188905239105225,0.3725307881832123,13.54413890838623
1697907794569160400,21.742160400390624,-0.28133535385131836,0.2627183794975281,11.375466346740723
1697907794588130800,21.761130859375,1.5203744173049927,0.4737929403781891,7.6245317459106445
1697907794607101200,21.78010107421875,1.9131243228912354,0.7029906511306763,3.619664192199707
1697907794626071600,21.799071533203126,1.2270909547805786,0.7316436767578125,-1.094045639038086
1697907794645042000,21.8180419921875,1.0993112325668335,0.4932452440261841,-4.852980136871338
1697907794664012300,21.83701220703125,0.24299001693725586,0.352057546377182,-7.165984630584717
1697907794682982700,21.855982666015624,-0.07629674673080444,0.47866925597190857,-8.567545890808105
1697907794701953000,21.874953125,0.7985001802444458,0.5211256742477417,-10.021018981933594
1697907794720923400,21.89392333984375,1.5713142156600952,0.42898672819137573,-14.075355529785156
1697907794739893800,21.912893798828126,2.299268960952759,-0.01866629719734192,-20.469602584838867
1697907794758864000,21.93186376953125,6.11543083190918,-0.009722292423248291,-21.308563232421875
1697907794777834200,21.950834228515625,6.0622663497924805,0.08603516221046448,-18.494112014770508
1697907794796804600,21.9698046875,2.1612987518310547,0.7354590892791748,-13.56643009185791
1697907794815775000,21.98877490234375,-0.6751816868782043,0.6645265817642212,-10.019744873046875
1697907794834745300,22.007745361328126,-2.8708672523498535,0.5263606309890747,-6.738657474517822
1697907794853715700,22.0267158203125,-2.541003942489624,-0.18002644181251526,-5.581108093261719
1697907794872686000,22.04568603515625,-3.2618205547332764,0.0396866500377655,-4.483811378479004
1697907794891656400,22.064656494140625,-2.2248339653015137,0.24280008673667908,-4.206528663635254
1697907794910626800,22.083626708984376,-0.34957945346832275,0.27705293893814087,-5.157325744628906
1697907794929597000,22.102596923828123,1.4292389154434204,-0.10462206602096558,-6.840003967285156
1697907794948567300,22.1215673828125,3.8393940925598145,-0.8406144976615906,-9.1402587890625
1697907794967537700,22.14053759765625,4.8752593994140625,-1.9625098705291748,-13.082048416137695
1697907794986508000,22.159508056640625,5.21292781829834,-2.4476981163024902,-14.313994407653809
1697907795005478400,22.178478515625,5.9639129638671875,-1.9372950792312622,-9.451812744140625
1697907795024448800,22.19744873046875,2.524592399597168,-2.266144037246704,-4.1116437911987305
1697907795043419100,22.216419189453124,5.275813579559326,-3.8631491661071777,9.725255012512207
1697907795062389500,22.235389404296875,3.6322085857391357,0.12255856394767761,60.490936279296875
1697907795081359600,22.254359619140626,-3.41867733001709,-2.800821304321289,68.1066665649414
1697907795100330000,22.273330078125,2.975205898284912,-1.8694181442260742,26.431415557861328
1697907795119300400,22.29230029296875,4.925573348999023,2.544631004333496,15.22432804107666
1697907795138270700,22.311270751953124,0.3476065397262573,4.377926826477051,16.46636390686035
1697907795157241000,22.330240966796875,-5.552684307098389,-0.6189666986465454,20.752124786376953
1697907795176211500,22.34921142578125,-0.23166441917419434,-1.2341992855072021,19.61513900756836
1697907795195181800,22.368181884765626,2.2233846187591553,1.3075674772262573,9.53325080871582
1697907795214152200,22.387152099609374,4.891641139984131,1.4519679546356201,0.6609363555908203
1697907795233122600,22.40612255859375,7.785147666931152,0.8266068696975708,-4.765796661376953
1697907795252093000,22.425093017578124,8.642499923706055,1.0096197128295898,-8.534042358398438
1697907795271063300,22.444063232421875,6.442272663116455,0.6138851642608643,-11.945009231567383
1697907795290033400,22.463033447265627,4.201813220977783,0.165872722864151,-15.456808090209961
1697907795309003800,22.482003662109374,1.8233773708343506,-0.5802897810935974,-20.90122413635254
1697907795327974100,22.50097412109375,-0.5486030578613281,-1.4315990209579468,-20.962284088134766
1697907795346944500,22.519944580078125,-3.2307019233703613,-0.7849503755569458,-17.305957794189453
1697907795365915000,22.538914794921876,-3.0338611602783203,0.21407988667488098,-13.805444717407227
1697907795384885200,22.55788525390625,-2.146071195602417,0.9047912359237671,-11.082939147949219
1697907795403855600,22.576855712890627,-2.182527780532837,1.2364542484283447,-9.078004837036133
1697907795422826000,22.595825927734374,-2.0628771781921387,1.3745176792144775,-7.016960144042969
1697907795441796000,22.614796142578125,-1.2214323282241821,1.2329249382019043,-6.649161338806152
1697907795460766500,22.633766357421877,-0.6589959859848022,1.3262192010879517,-6.861957550048828
1697907795479736800,22.65273681640625,0.8015861511230469,1.2022408246994019,-7.773778915405273
1697907795498707200,22.671707275390624,2.4869346618652344,0.19068743288516998,-9.200172424316406
1697907795517677600,22.690677490234375,2.1619462966918945,-0.09568360447883606,-9.364988327026367
1697907795536648000,22.70964794921875,1.7050905227661133,-0.2880786061286926,-9.802484512329102
1697907795555618300,22.728618408203126,0.7583580613136292,-1.1625680923461914,-11.135225296020508
1697907795574588700,22.747588623046877,1.434643030166626,-2.2155609130859375,-10.928744316101074
1697907795593559000,22.76655908203125,2.4295008182525635,-4.3687567710876465,-6.0438432693481445
1697907795612529200,22.785529052734375,-9.571019172668457,-7.436173439025879,14.401267051696777
1697907795631499500,22.80449951171875,-9.625411987304688,7.098160743713379,49.68982696533203
1697907795650470000,22.823469970703126,8.456645965576172,2.956986904144287,47.94223403930664
1697907795669440300,22.842440185546874,1.8458808660507202,2.0734386444091797,20.177888870239258
1697907795688410600,22.86141064453125,-4.38574743270874,0.4189736843109131,3.192014694213867
1697907795707381000,22.880381103515624,-2.706024408340454,-1.5105541944503784,-1.388650894165039
1697907795726351400,22.899351318359376,-0.8573200106620789,-2.1304266452789307,-3.242039203643799
1697907795745321700,22.91832177734375,-1.5992755889892578,-0.6934648752212524,-6.793144702911377
1697907795764292000,22.9372919921875,2.039316177368164,1.0541263818740845,-7.458687782287598
1697907795783262500,22.956262451171874,2.584502696990967,1.194559097290039,-6.762308120727539
1697907795802232600,22.975232666015625,1.9104300737380981,1.2697280645370483,-5.302990436553955
1697907795821203000,22.994202880859376,2.1131198406219482,0.15414056181907654,-5.465487480163574
1697907795840173300,23.01317333984375,3.055851936340332,-0.6128740310668945,-5.355597972869873
1697907795859143700,23.032143798828123,2.7222225666046143,-0.9321606159210205,-5.91684627532959
1697907795878114000,23.051114013671874,1.5156112909317017,-0.8806993961334229,-6.010076999664307
1697907795897084400,23.07008447265625,0.7593789100646973,-0.6303435564041138,-4.533060550689697
1697907795916054800,23.0890546875,-0.6107381582260132,-0.2848890423774719,-1.3500137329101562
1697907795935025200,23.108025146484376,-2.9309909343719482,0.6999388933181763,4.825778961181641
1697907795953995300,23.126995361328124,-3.1983354091644287,1.2665319442749023,10.625421524047852
1697907795972965600,23.145965576171875,-0.2692069411277771,0.7159340381622314,12.432555198669434
1697907795991936000,23.16493603515625,0.7922207117080688,0.06200924515724182,7.11289119720459
1697907796010906400,23.18390625,0.7921173572540283,-0.010544508695602417,1.142435073852539
1697907796029876700,23.202876708984373,0.4411696791648865,0.0656021237373352,-3.145285129547119
1697907796048847000,23.22184716796875,0.22666913270950317,0.22138966619968414,-5.314567565917969
1697907796067817500,23.2408173828125,0.18004022538661957,0.20465947687625885,-5.7811279296875
1697907796086787800,23.259787841796875,-0.37418708205223083,0.1979290097951889,-4.886877059936523
1697907796105758200,23.27875830078125,-1.131847858428955,0.23238001763820648,-2.4344048500061035
1697907796124728300,23.297728271484374,-1.5536742210388184,0.2311672866344452,-0.3075532913208008
1697907796143698700,23.31669873046875,-1.1109769344329834,0.11773043870925903,1.912994384765625
1697907796162669000,23.3356689453125,-0.26709333062171936,0.16592828929424286,2.9468297958374023
1697907796181639400,23.354639404296876,0.5687925815582275,-0.07714298367500305,3.291916847229004
1697907796200609800,23.37360986328125,0.630219042301178,-0.1830255687236786,3.479104995727539
1697907796219580200,23.392580078125,-0.11626136302947998,0.004738509654998779,2.466036796569824
1697907796238550500,23.411550537109374,-0.5931226015090942,0.14116528630256653,0.5440587997436523
1697907796257521000,23.43052099609375,-0.6193296313285828,0.09657379984855652,-1.2930593490600586
1697907796276491300,23.4494912109375,-0.6435487866401672,-0.011510610580444336,-2.4302144050598145
1697907796295461600,23.468461669921876,-0.511934220790863,0.002282440662384033,-2.7616539001464844
1697907796314431700,23.487431640625,-0.30486011505126953,0.13149616122245789,-2.1817946434020996
1697907796333402000,23.506402099609375,-0.3076011836528778,0.3958093523979187,-0.8314123153686523
1697907796352372500,23.52537255859375,-0.0482296347618103,0.5794911980628967,0.40799999237060547
1697907796371342800,23.5443427734375,0.37541893124580383,0.47342321276664734,1.1239471435546875
1697907796390313200,23.563313232421876,0.4569762945175171,0.1604614555835724,1.3898601531982422
1697907796409283600,23.58228369140625,0.3990303575992584,-0.28976213932037354,1.4336795806884766
1697907796428254000,23.60125390625,0.256346195936203,-0.4537738561630249,1.1130294799804688
1697907796447224300,23.620224365234375,0.0664842426776886,-0.234404057264328,0.4880342483520508
1697907796466194700,23.639194580078126,-0.044618189334869385,0.005368947982788086,-0.3437957763671875
1697907796485164800,23.658164794921873,-0.05977943539619446,0.12188620865345001,-1.0586442947387695
1697907796504135200,23.67713525390625,-0.0062670111656188965,0.1387859433889389,-1.3729562759399414
1697907796523105500,23.69610546875,0.20291367173194885,0.130709707736969,-1.338836669921875
1697907796542076000,23.715075927734375,0.4032967984676361,0.17047418653964996,-1.098465919494629
1697907796561046300,23.73404638671875,0.6028386950492859,0.16798439621925354,-0.9370937347412109
1697907796580016600,23.7530166015625,1.0077698230743408,0.07497107982635498,-0.8377714157104492
