time,seconds_elapsed,z,y,x
1697908570387722500,0.104722412109375,0.9784030914306641,0.3681464195251465,0.7773324847221375
1697908570406693000,0.123693115234375,0.8059186935424805,0.39957547187805176,0.837340772151947
1697908570425664000,0.1426640625,0.820622444152832,-0.0353546142578125,0.2110823094844818
1697908570444634600,0.161634521484375,0.3445882797241211,-0.36188292503356934,-0.5356767177581787
1697908570463605200,0.180605224609375,0.17965126037597656,-0.02722001075744629,-0.8314521908760071
1697908570482576100,0.199576171875,0.10919380187988281,0.2010185718536377,-0.2569747865200043
1697908570501546800,0.218546630859375,-0.061776161193847656,0.4919154644012451,0.458426833152771
1697908570520517600,0.237517578125,-0.19457244873046875,0.8093686103820801,0.8158152103424072
1697908570539488300,0.25648828125,-1.115004539489746,0.25728511810302734,0.5742806792259216
1697908570558459100,0.275459228515625,-1.1782245635986328,-0.7229499816894531,-0.15567496418952942
1697908570577429800,0.2944296875,-0.30274105072021484,-0.4004983901977539,-0.45782139897346497
1697908570596400600,0.313400634765625,-0.5421209335327148,0.008917808532714844,-1.0035784244537354
1697908570615371300,0.332371337890625,-0.9575433731079102,0.2044086456298828,-1.0461359024047852
1697908570634342100,0.351342041015625,-1.431427001953125,-0.12493395805358887,0.06920146942138672
1697908570653312800,0.370312744140625,-0.8874130249023438,-0.3908708095550537,0.4228334128856659
1697908570672283600,0.38928369140625,0.10877418518066406,-0.5425469875335693,0.32359778881073
1697908570691254300,0.408254150390625,0.4208965301513672,-0.5086925029754639,0.28809458017349243
1697908570710225200,0.42722509765625,0.2278280258178711,-0.6574673652648926,0.4182595908641815
1697908570729195800,0.44619580078125,1.1425113677978516,-0.9898586273193359,0.5585867166519165
1697908570748166700,0.465166748046875,0.8961582183837891,-0.9216029644012451,0.8771644234657288
1697908570767137300,0.48413720703125,-0.7271480560302734,-0.27013659477233887,0.4585305452346802
1697908570786108000,0.50310791015625,-3.1973013877868652,-0.11964201927185059,0.7110509872436523
1697908570805078800,0.522078857421875,-3.6901497840881348,-0.19476723670959473,0.1545918881893158
1697908570824049400,0.54104931640625,-2.803316116333008,-0.40796828269958496,-0.07674763351678848
1697908570843020300,0.560020263671875,-1.969306468963623,-0.8360469341278076,0.3370380699634552
1697908570861991200,0.5789912109375,-1.1538572311401367,-1.2463774681091309,0.9819889068603516
1697908570880961800,0.5979619140625,-0.3774595260620117,-1.2651252746582031,0.9482872486114502
1697908570899932700,0.6169326171875,0.7931118011474609,-1.026833415031433,0.7634526491165161
1697908570918903300,0.6359033203125,2.617544174194336,-0.9283619523048401,0.4739198684692383
1697908570937874200,0.654874267578125,3.1635122299194336,-0.8019580841064453,-0.23118114471435547
1697908570956844800,0.6738447265625,1.4596986770629883,-1.0069291591644287,0.14474725723266602
1697908570975815400,0.6928154296875,0.925140380859375,-0.6795351505279541,-0.8027502298355103
1697908570994786300,0.711786376953125,0.3150215148925781,-0.3348902463912964,-1.2005140781402588
1697908571013757000,0.7307568359375,-0.7174501419067383,-0.11540603637695312,-0.05778384208679199
1697908571032727800,0.749727783203125,-0.9175252914428711,0.9917020797729492,-0.12676304578781128
1697908571051698400,0.768698486328125,-0.4968900680541992,1.3655304908752441,0.16517530381679535
1697908571070669300,0.78766943359375,-0.21837615966796875,1.1293898820877075,0.24036073684692383
1697908571089640000,0.806639892578125,-1.007089614868164,1.156868577003479,-0.4775451421737671
1697908571108610800,0.82561083984375,-1.8021488189697266,1.0724257230758667,-0.9648060202598572
1697908571127581400,0.84458154296875,-1.9302639961242676,1.14963698387146,-1.0061684846878052
1697908571146552300,0.86355224609375,-1.333444595336914,1.4671951532363892,-0.4788367748260498
1697908571165523200,0.882523193359375,-0.7092924118041992,1.214435338973999,0.18669897317886353
1697908571184493800,0.901493896484375,0.3306760787963867,0.9934613704681396,-0.08172202110290527
1697908571203464700,0.920464599609375,0.2811622619628906,0.7412049770355225,-0.35380399227142334
1697908571222435300,0.939435302734375,-0.07354354858398438,0.18361198902130127,-0.7350037693977356
1697908571241406200,0.95840625,-1.086594581604004,-0.3211379051208496,-0.9755484461784363
1697908571260376800,0.977376953125,-1.2266674041748047,0.21206063032150269,-1.0830307006835938
1697908571279347700,0.99634765625,0.7036304473876953,0.2591702938079834,-0.8379774689674377
1697908571298318300,1.015318359375,2.709286689758301,0.8229349851608276,0.10734584927558899
1697908571317289200,1.034289306640625,3.542757034301758,1.3858544826507568,0.5463009476661682
1697908571336259800,1.053259765625,4.070443153381348,0.9130358695983887,0.6253004670143127
1697908571355230700,1.072230712890625,3.1820783615112305,0.22531533241271973,-0.2739412784576416
1697908571374201300,1.091201416015625,2.1866350173950195,-0.6010502576828003,-1.238167643547058
1697908571393172200,1.110172119140625,0.12708187103271484,-1.9499993324279785,-2.566826820373535
1697908571412142800,1.129142822265625,-2.3999686241149902,-2.7696096897125244,-3.861863613128662
1697908571431113700,1.14811376953125,-4.4354963302612305,-1.4757827520370483,-2.3248651027679443
1697908571450084400,1.16708447265625,-2.9629364013671875,0.600347638130188,0.3983626365661621
1697908571469055200,1.18605517578125,0.04775810241699219,1.5173516273498535,1.4595696926116943
1697908571488025900,1.20502587890625,1.7505903244018555,0.9153424501419067,1.2362010478973389
1697908571506996700,1.223996826171875,2.593931198120117,-0.5180506706237793,0.5269476175308228
1697908571525967400,1.24296728515625,0.4516639709472656,-0.7783019542694092,-1.0942120552062988
1697908571544938200,1.261938232421875,-1.430917739868164,-0.0003609657287597656,-0.5986571907997131
1697908571563908900,1.280908935546875,-1.1234540939331055,-0.21898281574249268,-0.006476163864135742
1697908571582879700,1.299879638671875,-0.15614700317382812,-0.3979378938674927,-0.0115739107131958
1697908571601850400,1.318850341796875,0.14230918884277344,-0.42524707317352295,-0.5956553816795349
1697908571620821200,1.3378212890625,0.29735565185546875,0.1493396759033203,0.06786012649536133
1697908571639791900,1.3567919921875,-0.3556680679321289,0.6879994869232178,0.5376533269882202
1697908571658762800,1.3757626953125,-1.271026611328125,-0.32943296432495117,1.501598834991455
1697908571677733400,1.3947333984375,-1.3488235473632812,-1.1647456884384155,0.24161115288734436
1697908571696704300,1.413704345703125,0.07637882232666016,-0.1516249179840088,-3.8686790466308594
1697908571715675000,1.4326748046875,-3.1036815643310547,-0.7671687602996826,-3.9532647132873535
1697908571734645800,1.451645751953125,-2.999833583831787,-0.9172136783599854,-1.389920711517334
1697908571753616600,1.47061669921875,0.966099739074707,-1.0339601039886475,-0.5704302191734314
1697908571772587300,1.489587158203125,3.843067169189453,-0.35038089752197266,-1.2252111434936523
1697908571791558100,1.50855810546875,5.134727478027344,-0.4306011199951172,-0.7918241620063782
1697908571810528800,1.52752880859375,5.3747758865356445,-0.4930276870727539,0.22763237357139587
1697908571829499600,1.546499755859375,3.5540504455566406,-0.8036293983459473,-0.5740135908126831
1697908571848470300,1.56547021484375,0.011890411376953125,-1.118570327758789,-1.0950007438659668
1697908571867441200,1.584441162109375,-2.5553712844848633,-0.7695558071136475,-1.7006824016571045
1697908571886411800,1.603411865234375,-3.1991677284240723,0.17028355598449707,-0.3590521514415741
1697908571905382700,1.622382568359375,-1.3234825134277344,0.35730433464050293,0.15203183889389038
1697908571924353300,1.641353271484375,1.422041893005371,-0.24183249473571777,0.3795287609100342
1697908571943324200,1.66032421875,2.213850975036621,-0.986670970916748,-0.16833746433258057
1697908571962294800,1.679294677734375,1.4836511611938477,-2.452983856201172,-0.8777397871017456
1697908571981265700,1.698265625,0.36971378326416016,-3.087353229522705,-2.269803524017334
1697908572000236300,1.717236328125,-0.9866809844970703,-1.965559959411621,-1.3347787857055664
1697908572019207200,1.736207275390625,-1.3353309631347656,-2.0836663246154785,-0.04232645034790039
1697908572038177800,1.755177734375,1.2015552520751953,-3.0096025466918945,-0.6336832046508789
1697908572057148700,1.774148681640625,2.032830238342285,-3.567011833190918,-1.8012232780456543
1697908572076119300,1.793119384765625,1.096621036529541,-4.432636260986328,-0.26514101028442383
1697908572095090200,1.812090087890625,0.7162923812866211,-5.033212661743164,-0.6101353168487549
1697908572114060800,1.831060791015625,-3.1531052589416504,-6.048015594482422,-0.17861461639404297
1697908572133031700,1.85003173828125,-6.318583965301514,-7.106298923492432,-0.8224987983703613
1697908572152002300,1.869002197265625,-4.947054862976074,-8.104249000549316,-1.0439844131469727
1697908572170973200,1.88797314453125,-0.7484312057495117,2.369645118713379,6.914182186126709
1697908572189943800,1.90694384765625,-12.641935348510742,-4.610603332519531,0.4009890556335449
1697908572208914700,1.925914794921875,-4.075882911682129,6.330253601074219,14.789828300476074
1697908572227885300,1.94488525390625,-8.924461364746094,-5.748570919036865,-0.44011926651000977
1697908572246856200,1.963856201171875,-8.246381759643555,-3.200279712677002,2.827242851257324
1697908572265826800,1.982826904296875,-2.540652275085449,2.466031551361084,6.214831352233887
1697908572284797700,2.001797607421875,5.550682544708252,13.676324844360352,16.569908142089844
1697908572303768300,2.020768310546875,-4.570890426635742,3.5582222938537598,3.549241065979004
1697908572322739200,2.0397392578125,0.8100287914276123,-1.8253607749938965,-2.9700045585632324
1697908572341709800,2.058709716796875,2.37062668800354,-0.24167513847351074,-1.6503448486328125
1697908572360680700,2.0776806640625,-2.1466071605682373,2.8664255142211914,0.9792709350585938
1697908572379651600,2.096651611328125,-0.12740612030029297,1.724550485610962,0.18854904174804688
1697908572398622200,2.115622314453125,0.7206177711486816,-0.720187783241272,-1.5776610374450684
1697908572417593000,2.134593017578125,-0.3767493963241577,-4.546679973602295,-3.8629016876220703
1697908572436563700,2.153563720703125,0.06877923011779785,0.9264293909072876,3.4343137741088867
1697908572455534600,2.17253466796875,-1.3245692253112793,5.549459934234619,7.474822998046875
1697908572474505200,2.191505126953125,-2.3426668643951416,-0.7004486322402954,4.625185012817383
1697908572493476000,2.21047607421875,1.4460673332214355,-3.0938398838043213,1.8975229263305664
1697908572512446700,2.22944677734375,0.36228108406066895,-0.14913809299468994,1.708125114440918
1697908572531417600,2.24841748046875,-1.096983551979065,-0.1241534948348999,-4.2853899002075195
1697908572550388200,2.26738818359375,0.7535398006439209,-0.7511805295944214,-9.580324172973633
1697908572569359000,2.286359130859375,-1.5186656713485718,-0.9531787037849426,-12.470718383789062
1697908572588329700,2.305329833984375,-3.355548620223999,0.038105010986328125,-8.644879341125488
1697908572607300600,2.324300537109375,-0.8169205188751221,-1.115374207496643,-3.9521265029907227
1697908572626271200,2.343271240234375,-2.037418842315674,-3.5806772708892822,-6.698850154876709
1697908572645242000,2.3622421875,-0.08733797073364258,0.36302614212036133,-1.8399028778076172
1697908572664212700,2.381212646484375,0.9679527282714844,-1.3090827465057373,1.3794546127319336
1697908572683183600,2.40018359375,1.0896878242492676,-3.3066203594207764,11.084376335144043
1697908572702154200,2.419154296875,2.0480878353118896,-4.210888862609863,8.099806785583496
1697908572721125000,2.438125,2.931347370147705,-2.403122901916504,10.28088092803955
1697908572740095700,2.457095703125,3.06125807762146,-0.5264748334884644,7.055787086486816
1697908572759066600,2.476066650390625,-1.6845746040344238,0.0587615966796875,5.200996398925781
1697908572778037200,2.495037353515625,-2.06693959236145,2.8452625274658203,2.399637222290039
1697908572797008100,2.514008056640625,-6.425409317016602,-0.08842813968658447,-1.168874740600586
1697908572815978800,2.532978759765625,-4.877135276794434,3.3177225589752197,-1.6650352478027344
1697908572834949600,2.55194970703125,-6.655603885650635,1.8660030364990234,2.470182418823242
1697908572853920300,2.570920166015625,5.9771833419799805,0.77497798204422,-4.331270217895508
1697908572872891100,2.58989111328125,8.185081481933594,3.2662858963012695,-10.151769638061523
1697908572891861800,2.60886181640625,14.527719497680664,7.469005107879639,-3.6207900047302246
1697908572910832600,2.62783251953125,-0.6800575256347656,-0.6226770877838135,-3.37796688079834
1697908572929803300,2.64680322265625,-3.1371846199035645,-0.3040306568145752,-1.915407657623291
1697908572948774100,2.665774169921875,-2.621581792831421,2.2184505462646484,-1.2021760940551758
1697908572967744800,2.684744873046875,-0.07233107089996338,0.712005615234375,-0.748809814453125
1697908572986715600,2.703715576171875,-2.0559258460998535,-1.9709932804107666,-0.8539924621582031
1697908573005686300,2.722686279296875,-1.9893261194229126,2.122957468032837,4.11259651184082
1697908573024657200,2.7416572265625,4.071884632110596,4.9665327072143555,8.783019065856934
1697908573043627800,2.760627685546875,3.5848135948181152,0.08501064777374268,8.485358238220215
1697908573062598700,2.7795986328125,-5.109976291656494,-14.939857482910156,-7.34706974029541
1697908573081569300,2.7985693359375,-1.1603319644927979,-5.047232627868652,-2.669957160949707
1697908573100540200,2.8175400390625,2.2924935817718506,-3.4811816215515137,-1.6620025634765625
1697908573119510800,2.8365107421875,1.7906731367111206,-4.359651565551758,-2.511565685272217
1697908573138481700,2.855481689453125,0.8998829126358032,-3.197326183319092,0.22517108917236328
1697908573157452300,2.874452392578125,0.06563115119934082,-1.8114395141601562,-0.38927459716796875
1697908573176423200,2.893423095703125,-1.166691780090332,1.5739282369613647,1.1909866333007812
1697908573195393800,2.912393798828125,-1.9205896854400635,0.036630868911743164,0.7440118789672852
1697908573214364700,2.93136474609375,-1.117605447769165,-0.2311263084411621,0.08492088317871094
1697908573233335300,2.950335205078125,-1.3879570960998535,3.354102849960327,2.4584426879882812
1697908573252306200,2.96930615234375,0.35327184200286865,3.419729709625244,1.3219223022460938
1697908573271276800,2.98827685546875,-0.05896341800689697,1.3024113178253174,0.2986736297607422
1697908573290247700,3.00724755859375,-1.0283701419830322,0.6919363737106323,-0.4546375274658203
1697908573309218300,3.02621826171875,-0.035176753997802734,-0.1418660283088684,-2.459247589111328
1697908573328189200,3.045189208984375,0.9346699714660645,-0.030177175998687744,-0.7657670974731445
1697908573347159800,3.064159912109375,-0.4717824459075928,0.7694637179374695,0.7899541854858398
1697908573366130700,3.083130615234375,-2.6672208309173584,0.06009697914123535,1.1017274856567383
1697908573385101300,3.102101318359375,-2.1702075004577637,0.24799346923828125,0.5911951065063477
1697908573404072200,3.121072265625,-0.6903536319732666,-0.20097270607948303,-2.1585750579833984
1697908573423042800,3.140042724609375,-0.276439905166626,0.6395752429962158,-2.8875341415405273
1697908573442013700,3.159013671875,0.9220144748687744,0.14252495765686035,-2.558586597442627
1697908573460984300,3.177984375,1.5605623722076416,0.2514657974243164,-0.16579914093017578
1697908573479955200,3.196955078125,3.000410318374634,-0.08362686634063721,1.8784942626953125
1697908573498925800,3.21592578125,0.8161716461181641,2.570411443710327,0.9072694778442383
1697908573517896700,3.234896728515625,-0.6233305931091309,2.1666760444641113,0.7378063201904297
1697908573536867300,3.253867431640625,0.7653733491897583,1.2926514148712158,1.7616147994995117
1697908573555838200,3.272838134765625,0.45177149772644043,0.5843607187271118,0.4790163040161133
1697908573574808800,3.291808837890625,0.11556780338287354,0.5087778568267822,-0.9188985824584961
1697908573593779700,3.31077978515625,-0.19323515892028809,0.9146488904953003,-0.7194604873657227
1697908573612750300,3.329750244140625,-0.2962096929550171,-0.6705965995788574,-0.751617431640625
1697908573631721200,3.34872119140625,-0.08184373378753662,-1.4834024906158447,0.10737991333007812
1697908573650691800,3.36769189453125,-0.6031473875045776,-1.6782183647155762,0.2794656753540039
1697908573669662700,3.386662841796875,-1.7595055103302002,-1.3907272815704346,-0.05817222595214844
1697908573688633300,3.40563330078125,-1.7740752696990967,-1.117424488067627,-0.7414617538452148
1697908573707604200,3.424604248046875,-0.1458606719970703,-1.1556286811828613,-0.4398527145385742
1697908573726574800,3.443574951171875,1.3862073421478271,-1.0003116130828857,0.13662338256835938
1697908573745545700,3.462545654296875,0.9262022972106934,-0.1710740327835083,0.09916305541992188
1697908573764516400,3.481516357421875,0.25974607467651367,0.5580917000770569,-0.021091461181640625
1697908573783487200,3.5004873046875,-0.30256009101867676,0.987797737121582,0.1231374740600586
1697908573802457900,3.519457763671875,2.240039825439453,0.6099813580513,0.7463750839233398
1697908573821428700,3.5384287109375,-6.795835971832275,9.084424018859863,-3.617384433746338
1697908573840399400,3.5573994140625,9.098977088928223,-6.219743251800537,4.463891983032227
1697908573859370200,3.576370361328125,-1.4521881341934204,0.9777127504348755,0.12578296661376953
1697908573878341000,3.595341064453125,-5.722278594970703,1.4396045207977295,0.9023237228393555
1697908573897311700,3.614311767578125,-2.9171395301818848,1.428627610206604,2.233433723449707
1697908573916282400,3.633282470703125,-0.5353665351867676,2.48111629486084,2.243011474609375
1697908573935253200,3.652253173828125,0.008130744099617004,0.6522570252418518,0.8191423416137695
1697908573954223900,3.671223876953125,0.5249699354171753,-0.23937174677848816,0.5220603942871094
1697908573973194800,3.69019482421875,0.7795852422714233,-1.124176263809204,-0.6229839324951172
1697908573992165400,3.709165283203125,-0.043899014592170715,-0.807824969291687,-0.28824901580810547
1697908574011136300,3.72813623046875,-0.31192725896835327,-1.1594690084457397,-1.2284469604492188
1697908574030107000,3.74710693359375,-0.056693047285079956,-0.9775872230529785,-2.0613818168640137
1697908574049077800,3.766077880859375,0.16893452405929565,-1.1178220510482788,-3.3947367668151855
1697908574068048400,3.78504833984375,-0.036961138248443604,-1.1150245666503906,-3.4662275314331055
1697908574087019300,3.804019287109375,0.05395585298538208,-0.25165989995002747,-2.8832859992980957
1697908574105990000,3.822989990234375,-0.29924172163009644,0.026212777942419052,-2.1974148750305176
1697908574124960800,3.841960693359375,-0.3527931571006775,-0.6823679208755493,-1.8182306289672852
1697908574143931400,3.860931396484375,-0.6059015989303589,0.12487258017063141,-0.760310173034668
1697908574162902300,3.87990234375,0.2338181883096695,0.09407833963632584,2.9533472061157227
1697908574181873000,3.898872802734375,1.2074426412582397,0.20077373087406158,5.219089508056641
1697908574200843800,3.91784375,1.2439980506896973,0.2497095912694931,4.338305473327637
1697908574219814400,3.936814453125,0.9551495313644409,1.2488547563552856,1.9293317794799805
1697908574238785300,3.955785400390625,0.9928287267684937,2.3190293312072754,-0.6038608551025391
1697908574257756000,3.974755859375,1.0738911628723145,0.2524993419647217,-1.8520240783691406
1697908574276726800,3.993726806640625,-0.1473298966884613,3.2951998710632324,-2.1274328231811523
1697908574295697400,4.012697509765625,-0.9302219152450562,1.3402591943740845,-3.9317240715026855
1697908574314668300,4.031668212890625,-0.3220696747303009,0.2853229343891144,-0.673375129699707
1697908574333639000,4.050638916015625,-0.13534113764762878,-0.622941255569458,-1.907548427581787
1697908574352609800,4.06960986328125,0.5923143625259399,-0.7994019389152527,-0.8671607971191406
1697908574371580400,4.088580322265625,0.34226977825164795,-0.1491512805223465,-1.9904112815856934
1697908574390551300,4.10755126953125,0.23370304703712463,-0.5636342167854309,-0.6405868530273438
1697908574409522000,4.12652197265625,0.3409828245639801,0.3646872043609619,-0.373138427734375
1697908574428492800,4.145492919921875,-0.33613187074661255,0.39966240525245667,-1.2374048233032227
1697908574447463400,4.16446337890625,-0.7240570783615112,0.2510336637496948,-0.7796545028686523
1697908574466434300,4.183434326171875,-0.7661852836608887,0.32291993498802185,-0.4166879653930664
1697908574485405000,4.202405029296875,-0.6886546611785889,0.3398556113243103,1.4963226318359375
1697908574504375800,4.221375732421875,-0.6692795157432556,-1.1989731788635254,2.697361946105957
1697908574523346400,4.240346435546875,-0.3634658455848694,-2.0323331356048584,3.5711231231689453
1697908574542317300,4.2593173828125,0.33112525939941406,-2.402139663696289,3.367431640625
1697908574561288000,4.278287841796875,0.5867271423339844,-2.492863178253174,2.291229248046875
1697908574580258800,4.2972587890625,0.794613242149353,-1.5159319639205933,0.5711259841918945
1697908574599229400,4.3162294921875,0.44867587089538574,-1.0671156644821167,-1.3233728408813477
1697908574618200300,4.335200439453125,-0.4531894326210022,-1.1371487379074097,-0.8913974761962891
1697908574637171000,4.3541708984375,-1.1289538145065308,-0.36249372363090515,-0.8124055862426758
1697908574656141800,4.373141845703125,-1.003275752067566,-0.15649999678134918,-0.8226137161254883
1697908574675112400,4.392112548828125,-0.6337717771530151,0.16595247387886047,-0.4333810806274414
1697908574694083300,4.411083251953125,-0.22995591163635254,0.1945836842060089,-0.4152822494506836
1697908574713054000,4.430053955078125,0.3220599889755249,0.2056916356086731,-0.06713485717773438
1697908574732024800,4.44902490234375,0.5974312424659729,-0.05716821551322937,0.33988475799560547
1697908574750995500,4.467995361328125,0.5142836570739746,-0.5233957171440125,0.6116886138916016
1697908574769966000,4.486966064453125,0.2937091588973999,-0.29744240641593933,0.8439931869506836
1697908574788937000,4.50593701171875,0.3388592004776001,1.7147010564804077,0.9745159149169922
1697908574807907800,4.524907958984375,0.3033550977706909,-2.097559690475464,-0.5604543685913086
1697908574826878500,4.54387841796875,-0.03555363416671753,-1.5804678201675415,-0.6403083801269531
1697908574845849300,4.562849365234375,-0.08543169498443604,-1.1035280227661133,-0.5546531677246094
1697908574864820000,4.581820068359375,-0.24213087558746338,-0.6292983293533325,-0.2377948760986328
1697908574883790800,4.600790771484375,0.025707513093948364,-0.44702762365341187,-0.45078182220458984
1697908574902761500,4.619761474609375,0.2799842357635498,-0.40637585520744324,-0.6687889099121094
1697908574921732000,4.638732177734375,0.49132809042930603,-0.16948094964027405,-0.5483608245849609
1697908574940703000,4.657702880859375,0.5237972736358643,-0.009458988904953003,-0.4828615188598633
1697908574959673600,4.676673583984375,0.4997146725654602,0.13196495175361633,-0.46723461151123047
1697908574978644500,4.69564453125,0.4580345153808594,0.27915748953819275,-0.20115184783935547
1697908574997615000,4.714614990234375,0.47147271037101746,0.44783252477645874,0.17515277862548828
1697908575016586000,4.7335859375,0.6317225098609924,0.5312528610229492,0.19852066040039062
1697908575035556600,4.752556640625,0.8812605738639832,0.6339335441589355,0.06662178039550781
1697908575054527500,4.771527587890625,0.8296903967857361,0.6017633676528931,-0.17667865753173828
1697908575073498000,4.790498046875,0.6995505094528198,0.5838305950164795,-0.35383033752441406
1697908575092469000,4.809468994140625,0.4325157105922699,0.44696295261383057,-0.33158302307128906
1697908575111439600,4.828439697265625,0.1686035394668579,0.1965075433254242,-0.14677906036376953
1697908575130410500,4.847410400390625,0.030580461025238037,-0.0320507287979126,-0.13871002197265625
1697908575149381000,4.866381103515625,-0.08467721939086914,-0.2099272906780243,-0.15404605865478516
1697908575168352000,4.88535205078125,-0.19020479917526245,-0.3843690752983093,0.012402534484863281
1697908575187322600,4.904322509765625,-0.2635881304740906,-0.5301023125648499,0.04670906066894531
1697908575206293500,4.92329345703125,-0.3302755653858185,-0.666521430015564,0.0850229263305664
1697908575225264000,4.94226416015625,-0.3631410598754883,-0.6020117998123169,0.15323352813720703
1697908575244235000,4.961235107421875,-0.4717940390110016,-0.6022170782089233,0.11804962158203125
1697908575263205600,4.98020556640625,-0.551049530506134,-0.5373120307922363,0.0583038330078125
1697908575282176500,4.999176513671875,-0.5222451686859131,-0.6349931359291077,0.12005996704101562
1697908575301147100,5.018147216796875,-0.648688018321991,-0.6333865523338318,0.0068225860595703125
1697908575320117800,5.03711767578125,-0.4001534879207611,-0.12891417741775513,0.06987953186035156
1697908575339088600,5.056088623046875,-0.23906314373016357,0.11263859272003174,-0.14575862884521484
1697908575358059300,5.075059326171875,-0.2242039442062378,0.3337334990501404,-0.07322025299072266
1697908575377030100,5.094030029296875,-0.21748769283294678,0.5426773428916931,-0.25255775451660156
1697908575396000800,5.113000732421875,-0.13121402263641357,0.6773737668991089,-0.14073944091796875
1697908575414971600,5.1319716796875,-0.035313546657562256,0.8387187719345093,-0.03119182586669922
1697908575433942300,5.1509423828125,-0.0024060606956481934,0.8490915894508362,0.058884620666503906
1697908575452913200,5.1699130859375,0.004444718360900879,0.6841464042663574,0.056189537048339844
1697908575471883800,5.1888837890625,0.030787229537963867,0.5108089447021484,-0.0627908706665039
1697908575490854700,5.207854736328125,0.029977500438690186,0.3618701100349426,-0.1293163299560547
1697908575509825300,5.2268251953125,0.03560441732406616,0.29037874937057495,-0.15176963806152344
1697908575528796200,5.245796142578125,0.06518620252609253,0.2522960901260376,-0.0753335952758789
1697908575547766800,5.264766845703125,0.11552906036376953,0.20799416303634644,0.01726531982421875
1697908575566737700,5.283737548828125,0.1587061882019043,0.10328155755996704,0.05545234680175781
1697908575585708300,5.302708251953125,0.14577609300613403,0.06322389841079712,0.0028076171875
1697908575604679200,5.32167919921875,0.10898363590240479,0.03347015380859375,-0.14789772033691406
1697908575623649800,5.34064990234375,0.14937978982925415,0.020734310150146484,-0.14879608154296875
1697908575642620700,5.35962060546875,0.15121221542358398,-0.05379033088684082,-0.018926620483398438
1697908575661591300,5.37859130859375,0.16375207901000977,-0.12992030382156372,0.05041027069091797
1697908575680562000,5.39756201171875,0.26687091588974,-0.2736227512359619,-0.04358386993408203
1697908575699532800,5.41653271484375,0.19524043798446655,-0.3891855478286743,-0.15951251983642578
1697908575718503400,5.43550341796875,0.1285945177078247,-0.4330473244190216,-0.19922542572021484
1697908575737474300,5.454474365234375,0.1102229654788971,-0.4004167318344116,-0.15855884552001953
1697908575756445200,5.473445068359375,0.13534587621688843,-0.3679162859916687,-0.12343215942382812
1697908575775415800,5.492415771484375,0.12742507457733154,-0.3172837793827057,-0.05180644989013672
1697908575794386400,5.511386474609375,0.11979782581329346,-0.28430724143981934,0.022327423095703125
1697908575813357300,5.530357421875,0.18727785348892212,-0.16569530963897705,0.05432891845703125
1697908575832328000,5.549327880859375,0.17606467008590698,-0.06329149007797241,0.06415176391601562
1697908575851298800,5.568298828125,0.15727370977401733,-0.01768326759338379,0.008177757263183594
1697908575870269400,5.58726953125,0.1364791989326477,-0.0031453967094421387,-0.052613258361816406
1697908575889240300,5.606240234375,0.1380665898323059,0.029652535915374756,-0.029488563537597656
1697908575908211000,5.6252109375,0.12497973442077637,-0.005814015865325928,0.03232097625732422
1697908575927181800,5.644181884765625,0.15700650215148926,0.016466349363327026,0.0029363632202148438
1697908575946152400,5.66315234375,0.20094168186187744,0.08818662166595459,-0.024788856506347656
1697908575965123300,5.682123291015625,0.20413446426391602,0.12397927045822144,-0.032326698303222656
1697908575984094000,5.701093994140625,0.29714441299438477,0.2308100163936615,0.008839607238769531
1697908576003064800,5.72006494140625,0.3378754258155823,0.2649143934249878,0.11440753936767578
1697908576022035500,5.739035400390625,0.4228425621986389,0.32866713404655457,0.0901956558227539
1697908576041006000,5.758006103515625,0.5946993231773376,0.3984995186328888,-0.0027666091918945312
1697908576059977000,5.77697705078125,0.5953646898269653,0.38009294867515564,-0.1522226333618164
1697908576078947800,5.79594775390625,0.43252748250961304,0.2875252068042755,-0.07315635681152344
1697908576097918500,5.81491845703125,0.21622371673583984,0.313975989818573,-0.01801586151123047
1697908576116889000,5.83388916015625,0.10413753986358643,0.34351101517677307,-0.042568206787109375
1697908576135860000,5.85285986328125,0.03753000497817993,0.20152047276496887,-0.15271759033203125
1697908576154830600,5.87183056640625,-0.07834666967391968,0.029277503490447998,-0.18175697326660156
1697908576173801500,5.890801513671875,-0.18328821659088135,-0.05586522817611694,-0.1205301284790039
1697908576192772000,5.909772216796875,-0.24137991666793823,-0.1073380708694458,-0.04889869689941406
1697908576211743000,5.928742919921875,-0.26483356952667236,-0.23940110206604004,-0.06551551818847656
1697908576230713600,5.947713623046875,-0.31288713216781616,-0.3310122489929199,-0.02116680145263672
1697908576249684500,5.9666845703125,-0.37514543533325195,-0.40320321917533875,-0.08850288391113281
1697908576268655000,5.985655029296875,-0.3526027202606201,-0.41495731472969055,0.029740333557128906
1697908576287626000,6.0046259765625,-0.20638394355773926,-0.37546032667160034,0.22210693359375
1697908576306596600,6.0235966796875,-0.08757680654525757,-0.39186522364616394,0.18750762939453125
1697908576325567200,6.042567138671875,-0.1446729302406311,-0.4856470227241516,-0.14465618133544922
1697908576344538000,6.0615380859375,-0.2063247561454773,-0.5745640397071838,-0.4863462448120117
1697908576363508700,6.0805087890625,-0.28052592277526855,-0.6680105328559875,-0.5007171630859375
1697908576382479600,6.099479736328125,-0.3351861238479614,-0.7786604166030884,-0.1357555389404297
1697908576401450200,6.1184501953125,-0.28106433153152466,-0.8258355259895325,0.38236141204833984
1697908576420421000,6.137421142578125,-0.18038851022720337,-0.750433623790741,0.61920166015625
1697908576439391700,6.156391845703125,-0.17023175954818726,-0.5451904535293579,0.5615825653076172
1697908576458362600,6.175362548828125,-0.15327423810958862,-0.4118521809577942,0.5219974517822266
1697908576477333200,6.194333251953125,-0.02357351779937744,-0.2814628481864929,0.45726490020751953
1697908576496304000,6.21330419921875,-0.06280708312988281,-0.2779102921485901,0.32195281982421875
1697908576515274800,6.232274658203125,-0.1568424105644226,-0.27384844422340393,0.20438671112060547
1697908576534245600,6.25124560546875,-0.2553088665008545,-0.19036149978637695,0.04627513885498047
1697908576553216300,6.27021630859375,-0.42985570430755615,-0.27462783455848694,-0.23014163970947266
1697908576572187100,6.289187255859375,-0.5070971250534058,-0.4622015058994293,-0.4215717315673828
1697908576591157800,6.30815771484375,-0.4167615473270416,-0.6397409439086914,-0.4946107864379883
1697908576610128400,6.32712841796875,-0.14572209119796753,-0.7371422052383423,-0.4150962829589844
1697908576629099300,6.346099365234375,-0.0023359060287475586,-0.4112827181816101,0.06374168395996094
1697908576648070000,6.36506982421875,-0.2836264371871948,-0.011989697813987732,0.5326719284057617
1697908576667040800,6.384040771484375,-0.33324408531188965,0.5276485681533813,0.5013113021850586
1697908576686011400,6.403011474609375,-0.13510608673095703,0.669481635093689,0.10028553009033203
1697908576704982300,6.421982177734375,0.1291213035583496,0.4538736939430237,-0.2580747604370117
1697908576723953000,6.440952880859375,0.33912479877471924,0.15049411356449127,-0.17583465576171875
1697908576742923800,6.459923828125,0.27718067169189453,-0.012786343693733215,0.16546249389648438
1697908576761894400,6.478894287109375,0.03628253936767578,-0.16895276308059692,0.5458202362060547
1697908576780865300,6.497865234375,-0.0373457670211792,-0.285746306180954,0.34997081756591797
1697908576799836000,6.5168359375,0.13708734512329102,-0.2399924099445343,-0.1413898468017578
1697908576818806800,6.535806884765625,0.20055663585662842,-0.1284293681383133,-0.5829029083251953
1697908576837777400,6.55477734375,0.16532903909683228,-0.052835866808891296,-0.7660074234008789
1697908576856748000,6.573748046875,0.007152676582336426,0.10080923140048981,-0.38261890411376953
1697908576875719000,6.592718994140625,-0.1366860270500183,0.15467318892478943,0.22532176971435547
1697908576894689500,6.611689453125,-0.21255147457122803,0.20488274097442627,0.6019430160522461
1697908576913660400,6.630660400390625,-0.12746042013168335,0.2704271078109741,0.4800224304199219
1697908576932631000,6.649631103515625,0.019976794719696045,0.30919474363327026,0.05247688293457031
1697908576951602000,6.668601806640625,0.04736042022705078,0.22504594922065735,-0.1894826889038086
1697908576970572500,6.687572509765625,0.01659393310546875,0.11720232665538788,-0.19976139068603516
1697908576989543400,6.70654345703125,-0.060102224349975586,0.024676978588104248,-0.1302347183227539
1697908577008514000,6.72551416015625,-0.12843358516693115,-0.09609730541706085,-0.08655834197998047
1697908577027484700,6.744484619140625,-0.0726020336151123,-0.16195864975452423,-0.07465648651123047
1697908577046455600,6.76345556640625,0.03216332197189331,-0.09605216979980469,-0.12368011474609375
1697908577065426200,6.78242626953125,0.07996630668640137,0.012460321187973022,-0.08413410186767578
1697908577084397000,6.80139697265625,0.12474477291107178,0.19561393558979034,0.0006456375122070312
1697908577103367700,6.82036767578125,0.16995304822921753,0.2932596802711487,0.04520225524902344
1697908577122338600,6.839338623046875,0.2053397297859192,0.3016355037689209,0.057587623596191406
1697908577141309200,6.85830908203125,0.20523250102996826,0.24987998604774475,-0.019273757934570312
1697908577160280000,6.877280029296875,0.158511221408844,0.1722659170627594,-0.0772104263305664
1697908577179250700,6.896250732421875,0.11564821004867554,0.07342281937599182,-0.13765621185302734
1697908577198221600,6.9152216796875,0.11319595575332642,-0.020655065774917603,-0.15151691436767578
1697908577217192200,6.934192138671875,0.12771904468536377,-0.033686667680740356,-0.0851888656616211
1697908577236162800,6.953162841796875,0.12228459119796753,-0.03745436668395996,-0.0217437744140625
1697908577255133700,6.9721337890625,0.07293945550918579,-0.07244873046875,0.023586273193359375
1697908577274104300,6.991104248046875,0.07441544532775879,-0.018716752529144287,0.014075279235839844
1697908577293075200,7.0100751953125,0.07077032327651978,0.03004133701324463,0.027784347534179688
1697908577312045800,7.0290458984375,0.02516728639602661,0.046420395374298096,0.02257251739501953
1697908577331016700,7.0480166015625,0.059523940086364746,0.05264604091644287,0.057494163513183594
1697908577349987300,7.0669873046875,0.08528465032577515,0.08994081616401672,-0.002727508544921875
1697908577368958200,7.085958251953125,0.0550844669342041,0.13823559880256653,-0.09092903137207031
1697908577387928800,7.1049287109375,0.021040916442871094,0.1165308952331543,-0.09676170349121094
1697908577406899700,7.123899658203125,-0.03373497724533081,0.08491078019142151,-0.04636573791503906
1697908577425870300,7.142870361328125,-0.06377112865447998,0.03437170386314392,-0.0025014877319335938
1697908577444841000,7.161841064453125,-0.010445475578308105,0.03176674246788025,0.05403709411621094
1697908577463811800,7.180811767578125,0.02897655963897705,-0.0013829171657562256,0.07122230529785156
1697908577482782500,7.199782470703125,0.051944851875305176,0.036298513412475586,0.013429641723632812
1697908577501753300,7.21875341796875,0.06680667400360107,0.08614060282707214,-0.07940006256103516
1697908577520724000,7.237723876953125,0.046264469623565674,0.12040087580680847,-0.08046722412109375
1697908577539694800,7.25669482421875,0.05201345682144165,0.13999831676483154,-0.013917922973632812
1697908577558665500,7.27566552734375,0.056411802768707275,0.12000855803489685,0.026841163635253906
1697908577577636400,7.29463623046875,0.04354649782180786,0.11070853471755981,0.026617050170898438
1697908577596607000,7.31360693359375,0.05968320369720459,0.044052958488464355,0.052079200744628906
1697908577615577600,7.33257763671875,0.05934816598892212,0.00795021653175354,0.027297019958496094
1697908577634548500,7.351548583984375,0.024887502193450928,-0.015532106161117554,-0.0176239013671875
1697908577653519000,7.37051904296875,0.030295968055725098,-0.016094356775283813,-0.03072071075439453
1697908577672490000,7.389489990234375,0.011829197406768799,-0.024457812309265137,-0.02923870086669922
1697908577691460600,7.408460693359375,0.01828324794769287,-0.009129077196121216,-0.044051170349121094
1697908577710431500,7.427431396484375,0.009937703609466553,0.036210477352142334,-0.00455474853515625
1697908577729402000,7.446402099609375,0.01117861270904541,-0.005541950464248657,-0.013024330139160156
1697908577748373000,7.465373046875,0.0288848876953125,-0.05663573741912842,-0.00001811981201171875
1697908577767343600,7.484343505859375,0.02801215648651123,-0.048871397972106934,-0.0015392303466796875
1697908577786314200,7.503314208984375,0.012425243854522705,-0.061828941106796265,0.02241230010986328
1697908577805285000,7.52228515625,-0.009268224239349365,-0.027596741914749146,0.043453216552734375
1697908577824255700,7.541255859375,0.003833472728729248,-0.02779972553253174,0.030849456787109375
1697908577843226600,7.5602265625,0.018557071685791016,-0.025436341762542725,-0.03252696990966797
1697908577862197200,7.579197265625,0.03284341096878052,-0.011979490518569946,-0.09355449676513672
1697908577881168100,7.598168212890625,0.018105506896972656,0.03606328368186951,-0.00109100341796875
1697908577900138800,7.617138671875,0.00030153989791870117,0.031496673822402954,0.0809011459350586
1697908577919109400,7.636109375,-0.043511152267456055,0.03703075647354126,0.03613567352294922
1697908577938080300,7.655080322265625,-0.012613177299499512,-0.04187297821044922,-0.020636558532714844
1697908577957051000,7.67405078125,-0.013546586036682129,-0.021901428699493408,-0.043282508850097656
1697908577976021800,7.693021728515625,-0.01825636625289917,-0.005660712718963623,-0.013644218444824219
1697908577994992400,7.711992431640625,0.011034488677978516,-0.02565324306488037,0.061430931091308594
1697908578013963300,7.73096337890625,0.04099154472351074,-0.024214953184127808,0.08715152740478516
1697908578032934000,7.749933837890625,0.040154874324798584,-0.013771802186965942,0.08612346649169922
1697908578051904500,7.768904541015625,0.007070481777191162,-0.032374024391174316,0.05437755584716797
1697908578070875400,7.78787548828125,-0.014509201049804688,-0.0460851788520813,-0.006884574890136719
1697908578089846300,7.80684619140625,-0.038919150829315186,-0.003979206085205078,-0.05186176300048828
1697908578108817000,7.82581689453125,-0.03835409879684448,0.036684781312942505,-0.041217803955078125
1697908578127787500,7.84478759765625,0.00907212495803833,0.03445503115653992,-0.061382293701171875
1697908578146758400,7.86375830078125,0.0393410325050354,0.0009070336818695068,-0.06164360046386719
1697908578165729000,7.88272900390625,0.024634182453155518,-0.031038016080856323,-0.017791748046875
1697908578184700000,7.901699951171875,0.013039588928222656,-0.05691957473754883,-0.012956619262695312
1697908578203670500,7.92067041015625,0.013864278793334961,-0.09117576479911804,0.015036582946777344
1697908578222641400,7.939641357421875,0.003145754337310791,-0.13648977875709534,0.023664474487304688
1697908578241612000,7.958612060546875,0.021588683128356934,-0.0990307629108429,0.04093647003173828
1697908578260582700,7.977582763671875,0.018896818161010742,-0.0437779426574707,0.02747821807861328
1697908578279553500,7.996553466796875,0.03421652317047119,-0.02878183126449585,-0.041426658630371094
1697908578298524200,8.015524169921875,0.04047518968582153,-0.012457877397537231,-0.12922191619873047
1697908578317495000,8.0344951171875,0.026266276836395264,-0.01694810390472412,-0.18575000762939453
1697908578336465700,8.053465576171876,-0.010193884372711182,-0.11554655432701111,-0.15363121032714844
1697908578355436500,8.0724365234375,-0.07368046045303345,-0.2243790328502655,-0.06931495666503906
1697908578374407200,8.0914072265625,-0.12076461315155029,-0.3086983561515808,-0.053478240966796875
1697908578393377800,8.110377685546876,-0.16033035516738892,-0.36573198437690735,-0.06354331970214844
1697908578412348700,8.1293486328125,-0.22813904285430908,-0.4179660975933075,-0.12894248962402344
1697908578431319300,8.1483193359375,-0.314009428024292,-0.4263564348220825,-0.075286865234375
1697908578450290200,8.167290283203124,-0.4313860535621643,-0.46630698442459106,0.07911014556884766
1697908578469260800,8.1862607421875,-0.4674947261810303,-0.5443283915519714,0.22579097747802734
1697908578488231700,8.205231689453125,-0.460215300321579,-0.5877792239189148,0.16723060607910156
1697908578507202300,8.224202392578125,-0.4661778509616852,-0.5497090816497803,0.1175680160522461
1697908578526173200,8.243173095703124,-0.453607976436615,-0.4957028925418854,0.08640861511230469
1697908578545143800,8.262143798828125,-0.40195176005363464,-0.3699355125427246,0.0517120361328125
1697908578564114400,8.281114501953125,-0.3276287317276001,-0.2312609702348709,0.020643234252929688
1697908578583085300,8.300085205078124,-0.22750866413116455,-0.13545763492584229,-0.03997039794921875
1697908578602056000,8.319055908203126,-0.1259353756904602,-0.11519396305084229,-0.0987081527709961
1697908578621026800,8.33802685546875,-0.06666994094848633,-0.11346688866615295,-0.21910953521728516
1697908578639997400,8.35699755859375,-0.0034407377243041992,-0.21471217274665833,-0.36803627014160156
1697908578658968000,8.375968017578124,0.05080932378768921,-0.18840646743774414,-0.5402164459228516
1697908578677939000,8.39493896484375,0.13036459684371948,-0.005290299654006958,-0.8144350051879883
1697908578696909600,8.41390966796875,0.15073418617248535,0.09850242733955383,-1.197763442993164
1697908578715880400,8.43288037109375,0.0749008059501648,0.4234588146209717,-1.2706794738769531
1697908578734851000,8.45185107421875,-0.2393530011177063,0.6845258474349976,-0.9557704925537109
1697908578753822000,8.470822021484375,-0.6056910753250122,0.8017764091491699,-0.23859119415283203
1697908578772792600,8.48979248046875,-0.6502317190170288,0.5798478126525879,0.4901762008666992
1697908578791763500,8.508763427734374,-0.468581885099411,0.08741933107376099,0.9709444046020508
1697908578810734000,8.527734130859375,-0.47125717997550964,-0.3608725070953369,1.0484790802001953
1697908578829704700,8.54670458984375,-0.5793136358261108,-0.2733704447746277,0.9342060089111328
1697908578848675600,8.565675537109374,-0.8117802143096924,-0.11384305357933044,0.9297094345092773
1697908578867646200,8.584646240234376,-0.8921699523925781,0.11702659726142883,0.8101863861083984
1697908578886617000,8.6036171875,-0.8978880047798157,0.48934486508369446,0.5792627334594727
1697908578905587700,8.622587646484375,-0.7835161089897156,0.6401827335357666,0.3166618347167969
1697908578924558300,8.641558349609374,-0.6659291386604309,0.9992374181747437,-0.0088043212890625
1697908578943529200,8.660529296875,-0.7308128476142883,0.9482271075248718,-0.40215301513671875
1697908578962499800,8.679499755859375,-0.7486476302146912,0.6804953813552856,-0.7537202835083008
1697908578981470700,8.698470703125,-0.6605015993118286,0.3791137933731079,-1.080038070678711
1697908579000441300,8.71744140625,-0.5181783437728882,0.24856162071228027,-1.2733659744262695
1697908579019412200,8.736412109375,-0.6415032148361206,0.1471787691116333,-1.3721866607666016
1697908579038382800,8.7553828125,-0.7365404963493347,0.2518628239631653,-1.279475212097168
1697908579057353500,8.774353515625,-0.7741475105285645,0.3944682478904724,-1.1701335906982422
1697908579076324400,8.793324462890626,-0.7945525646209717,0.4689056873321533,-1.099226951599121
1697908579095295000,8.812294921875,-0.8410649299621582,0.4170922636985779,-1.1075363159179688
1697908579114265900,8.831265869140625,-0.8491816520690918,0.42553991079330444,-1.0449151992797852
1697908579133236500,8.850236572265626,-0.6873002052307129,0.4391568899154663,-1.0335187911987305
1697908579152207400,8.869207275390625,-0.6452121734619141,0.5076996684074402,-0.8084297180175781
1697908579171178000,8.888177978515625,-0.7511641979217529,0.624785840511322,-0.5302772521972656
1697908579190148600,8.907148681640624,-0.9507217407226562,0.44022244215011597,-0.41605567932128906
1697908579209119500,8.926119384765625,-0.8718700408935547,0.2225777506828308,-0.4472341537475586
1697908579228090000,8.945090087890625,-0.637615978717804,0.09329336881637573,-0.6302642822265625
1697908579247061000,8.96406103515625,-0.6051547527313232,0.07421529293060303,-0.6163101196289062
1697908579266031600,8.983031494140626,-0.5535336136817932,0.46800315380096436,-0.7142457962036133
1697908579285002500,9.00200244140625,-0.3619733154773712,0.9216168522834778,-0.8422012329101562
1697908579303973000,9.02097314453125,-0.24555101990699768,1.076615810394287,-1.069167137145996
1697908579322943700,9.03994384765625,-0.07756292819976807,0.7027981877326965,-1.0935535430908203
1697908579341914600,9.05891455078125,-0.1516347974538803,0.2587810158729553,-0.7469244003295898
1697908579360885200,9.07788525390625,-0.6349464654922485,0.35478246212005615,-0.18432331085205078
1697908579379856100,9.096856201171875,-0.8548117876052856,-0.24226468801498413,0.21665096282958984
1697908579398826800,9.11582666015625,-0.3445330858230591,-0.9065837264060974,-0.1530447006225586
1697908579417797600,9.134797607421875,0.6089352369308472,-0.6183794736862183,-0.8290815353393555
1697908579436768300,9.153768310546875,1.2116689682006836,0.1881696581840515,-0.6067495346069336
1697908579455739000,9.17273876953125,1.4088280200958252,0.4421856999397278,-0.09423065185546875
1697908579474709800,9.191709716796876,1.6439716815948486,-0.1295301914215088,0.43656063079833984
1697908579493680400,9.210680419921875,1.6593964099884033,-0.30773842334747314,1.2908859252929688
1697908579512651300,9.2296513671875,1.879518985748291,-0.24149185419082642,1.3303442001342773
1697908579531622000,9.248621826171876,1.7340922355651855,-0.025664031505584717,1.0360479354858398
1697908579550592500,9.267592529296875,1.321485161781311,-0.15679287910461426,0.35666561126708984
1697908579569563400,9.2865634765625,1.0114545822143555,-0.6017424464225769,0.24521255493164062
1697908579588534000,9.305533935546874,1.244175910949707,-0.8005150556564331,0.6894540786743164
1697908579607505000,9.3245048828125,1.5980762243270874,-0.6484155058860779,0.9004306793212891
1697908579626475500,9.3434755859375,1.6761986017227173,-0.5640820264816284,1.0013017654418945
1697908579645446400,9.3624462890625,1.6597057580947876,-0.48445457220077515,1.2524738311767578
1697908579664417000,9.3814169921875,1.5232813358306885,0.09579658508300781,1.771714210510254
1697908579683387600,9.4003876953125,1.4867385625839233,0.40290629863739014,1.8324575424194336
1697908579702358500,9.419358642578125,1.1946901082992554,0.40867340564727783,1.7537660598754883
1697908579721329200,9.4383291015625,1.1541719436645508,0.07092368602752686,1.5641841888427734
1697908579740300000,9.457300048828126,1.0894980430603027,0.1316976547241211,1.7997360229492188
1697908579759270700,9.476270751953125,1.0482447147369385,-0.19725453853607178,1.7002229690551758
1697908579778241500,9.495241455078125,1.076933741569519,-0.39470726251602173,1.527566909790039
1697908579797212200,9.514212158203126,1.0208380222320557,-0.3058934211730957,1.5359172821044922
1697908579816182800,9.533182861328125,0.9513533115386963,-0.4162195324897766,1.5066404342651367
1697908579835153700,9.552153564453125,0.8212231993675232,-0.49051350355148315,1.388875961303711
1697908579854124300,9.571124267578124,0.7020668983459473,-0.406177818775177,1.1566686630249023
1697908579873095200,9.59009521484375,0.7085569500923157,-0.1498585343360901,1.0498943328857422
1697908579892065800,9.609065673828125,0.8532626032829285,-0.18603670597076416,0.9038267135620117
1697908579911036700,9.62803662109375,0.9273120760917664,-0.20147067308425903,0.6301155090332031
1697908579930007300,9.64700732421875,1.0178022384643555,-0.1629657745361328,0.46399784088134766
1697908579948978000,9.66597802734375,0.9709411859512329,-0.018621087074279785,0.640263557434082
1697908579967948800,9.68494873046875,0.767448902130127,0.0872260332107544,0.7511186599731445
1697908579986919400,9.70391943359375,0.7232433557510376,-0.14365887641906738,0.5632381439208984
1697908580005890300,9.722890380859376,0.6547973155975342,-0.16349971294403076,0.5458221435546875
1697908580024861000,9.74186083984375,0.666367769241333,0.2450331449508667,0.8100986480712891
1697908580043831600,9.76083154296875,0.392861008644104,0.2899676561355591,0.7492799758911133
1697908580062802400,9.779802490234376,0.03885841369628906,-0.1125720739364624,0.7263879776000977
1697908580081773000,9.79877294921875,0.04383587837219238,-0.24668633937835693,0.8357162475585938
1697908580100744000,9.817743896484375,0.35011374950408936,-0.037105679512023926,0.6687736511230469
1697908580119714600,9.836714599609374,0.6047565937042236,-0.4728718400001526,0.5041351318359375
1697908580138685400,9.855685546875,0.40943920612335205,-0.35379558801651,0.4771270751953125
1697908580157656000,9.874656005859375,0.4689333438873291,-0.06273031234741211,0.9624662399291992
1697908580176626700,9.893626708984375,0.6227418184280396,0.011154532432556152,1.1888532638549805
1697908580195597600,9.91259765625,0.6941726207733154,-0.06345093250274658,1.2176132202148438
1697908580214568200,9.931568115234375,0.9489829540252686,0.34196174144744873,1.3888435363769531
1697908580233539000,9.9505390625,1.1081278324127197,0.7483144998550415,1.4012928009033203
1697908580252509700,9.969509765625,1.3065497875213623,0.5527362823486328,1.3899974822998047
1697908580271480300,9.988480224609376,1.1542693376541138,0.17620420455932617,1.316023826599121
1697908580290451200,10.007451171875,1.1007497310638428,0.10239541530609131,1.428175926208496
1697908580309421800,10.026421875,1.2050925493240356,0.01936936378479004,1.4490203857421875
1697908580328392700,10.045392822265624,1.1681526899337769,-0.03993105888366699,1.3736886978149414
1697908580347363300,10.06436328125,1.0622799396514893,0.18036627769470215,1.2508306503295898
1697908580366334000,10.083333984375,1.0874834060668945,0.10112690925598145,0.9588861465454102
1697908580385304800,10.102304931640624,1.3220702409744263,-0.004324913024902344,0.8062973022460938
1697908580404275500,10.121275390625,1.44658625125885,0.10639739036560059,0.8616676330566406
1697908580423246300,10.140246337890625,1.4481792449951172,-0.15260493755340576,0.6445960998535156
1697908580442217000,10.159217041015625,1.4213117361068726,-0.4982624053955078,0.4443368911743164
1697908580461187600,10.1781875,1.549238681793213,-0.6228891015052795,0.26071929931640625
1697908580480158500,10.197158447265625,1.7463433742523193,-0.3567112684249878,0.08459091186523438
1697908580499129000,10.216129150390625,1.7913626432418823,-0.09656655788421631,-0.36440372467041016
1697908580518100000,10.235099853515624,1.7035075426101685,-0.311224102973938,-0.8890619277954102
1697908580537070600,10.254070556640626,1.6117621660232544,-0.5052571296691895,-1.216644287109375
1697908580556041500,10.27304150390625,1.6077746152877808,-0.7237604260444641,-1.4265260696411133
1697908580575012000,10.29201220703125,1.6560020446777344,-0.8757385611534119,-1.3786582946777344
1697908580593982700,10.310982666015626,1.471599817276001,-0.8158767819404602,-0.94866943359375
1697908580612953600,10.32995361328125,1.3027750253677368,-0.5187721848487854,-0.3485078811645508
1697908580631924200,10.34892431640625,1.0611071586608887,-0.5720664262771606,-0.040518760681152344
1697908580650895000,10.36789501953125,0.9603877067565918,-0.7311843037605286,0.05406951904296875
1697908580669865700,10.38686572265625,0.6634756326675415,-0.8160804510116577,-0.018365859985351562
1697908580688836400,10.40583642578125,0.42844557762145996,-0.5883868336677551,0.09018421173095703
1697908580707807200,10.42480712890625,0.45810413360595703,-0.458629310131073,-0.11875152587890625
1697908580726777900,10.44377783203125,0.4138885736465454,-0.17438530921936035,-0.25234222412109375
1697908580745748700,10.462748779296875,0.12927377223968506,0.02602851390838623,-0.3958921432495117
1697908580764719400,10.48171923828125,-0.17127585411071777,-0.049549221992492676,-0.7193193435668945
1697908580783690000,10.50068994140625,-0.7105279564857483,-0.1431751251220703,-0.924464225769043
1697908580802660900,10.519660888671876,-1.7080777883529663,-0.03469318151473999,-1.0735893249511719
1697908580821631500,10.538631591796875,-2.351893424987793,-0.22204804420471191,-1.5366287231445312
1697908580840602400,10.557602294921875,-2.6955783367156982,-0.5378187894821167,-1.8798465728759766
1697908580859573000,10.576572998046874,-2.546923875808716,-0.782660722732544,-2.2334017753601074
1697908580878544000,10.5955439453125,-2.374659776687622,-0.8345862030982971,-2.3602914810180664
1697908580897514500,10.614514404296875,-2.500460147857666,-0.35165882110595703,-2.089977741241455
1697908580916485000,10.633485107421874,-2.1283516883850098,0.33581459522247314,-1.5135269165039062
1697908580935456000,10.6524560546875,-1.777458667755127,1.056969165802002,-1.07568359375
1697908580954426600,10.671426513671875,-1.6223642826080322,1.361850380897522,-0.6163616180419922
1697908580973397500,10.6903974609375,-1.4739711284637451,1.024707555770874,-0.7167034149169922
1697908580992368000,10.7093681640625,-1.320621371269226,0.48420220613479614,-0.8386688232421875
1697908581011338800,10.7283388671875,-1.5088119506835938,0.3337298631668091,-0.6026811599731445
1697908581030309600,10.7473095703125,-1.5541683435440063,0.5271452069282532,-0.3498344421386719
1697908581049280300,10.7662802734375,-1.4816701412200928,0.7393638491630554,-0.1797924041748047
1697908581068251000,10.7852509765625,-1.2762198448181152,0.9979235529899597,-0.33158397674560547
1697908581087221800,10.8042216796875,-1.1684370040893555,1.076267123222351,-0.7063770294189453
1697908581106192400,10.8231923828125,-1.2643303871154785,0.7541850209236145,-0.94671630859375
1697908581125163300,10.842163330078124,-1.4228278398513794,0.21754920482635498,-1.074960708618164
1697908581144134000,10.8611337890625,-1.3010382652282715,0.10892218351364136,-0.9543361663818359
1697908581163104500,10.8801044921875,-1.160523772239685,0.17155581712722778,-0.8222293853759766
1697908581182075400,10.899075439453124,-1.0188343524932861,0.23609739542007446,-0.5503444671630859
1697908581201046000,10.9180458984375,-0.8317177891731262,0.19899725914001465,-0.49895191192626953
1697908581220017000,10.937016845703125,-0.7056596279144287,0.015671253204345703,-0.9591531753540039
1697908581238987500,10.955987548828125,-0.6644696593284607,-0.030814766883850098,-1.4899711608886719
1697908581257958400,10.97495849609375,-0.5661763548851013,0.08915907144546509,-1.9147815704345703
1697908581276929000,10.993928955078125,-0.476146936416626,0.15787804126739502,-2.0838136672973633
1697908581295899600,11.012899658203125,-0.351149320602417,0.09839785099029541,-2.1248645782470703
1697908581314870500,11.03187060546875,-0.20234239101409912,0.13899582624435425,-2.1027021408081055
1697908581333841200,11.050841064453126,-0.12094318866729736,0.35790157318115234,-1.9147205352783203
1697908581352811800,11.069811767578125,-0.05833315849304199,0.5475459098815918,-1.7073259353637695
1697908581371782700,11.08878271484375,-0.15298044681549072,0.5458166003227234,-1.3501777648925781
1697908581390753300,11.107753173828126,0.04168415069580078,0.5355384349822998,-0.9276065826416016
1697908581409724200,11.12672412109375,0.4174708127975464,0.6159701943397522,-0.461181640625
1697908581428694800,11.14569482421875,0.565597414970398,0.5623308420181274,0.01898956298828125
1697908581447665400,11.16466552734375,0.42065703868865967,0.539665162563324,0.5898284912109375
1697908581466636300,11.18363623046875,0.09490454196929932,0.38184404373168945,1.0750598907470703
1697908581485607000,11.20260693359375,-0.34777581691741943,0.26662057638168335,1.0319242477416992
1697908581504577800,11.221577880859375,-0.8457902073860168,0.4379528760910034,0.5859203338623047
1697908581523548400,11.24054833984375,-1.0719079971313477,0.5823503136634827,-0.27123546600341797
1697908581542519300,11.259519287109375,-0.9376693964004517,0.3405243158340454,-1.162806510925293
1697908581561490000,11.278489990234375,-0.5772955417633057,-0.17110466957092285,-1.4291696548461914
1697908581580460500,11.29746044921875,-0.24587750434875488,-0.41925832629203796,-0.6614561080932617
1697908581599431400,11.316431396484376,0.01627671718597412,0.1338592767715454,0.2718381881713867
1697908581618402000,11.335402099609375,-0.04400670528411865,0.8326013684272766,0.9057168960571289
1697908581637373000,11.354373046875,-0.45739781856536865,0.524731457233429,1.1013870239257812
1697908581656343600,11.373343505859374,-0.7880526781082153,-0.5457446575164795,0.8549795150756836
1697908581675314200,11.392314208984375,-0.9621263742446899,-1.1998114585876465,0.5235776901245117
1697908581694285000,11.41128515625,-1.0899007320404053,-1.4697530269622803,-0.03100299835205078
1697908581713255700,11.430255615234374,-0.9487147927284241,-1.1974565982818604,-0.46396923065185547
1697908581732226300,11.449226318359376,-0.7868762612342834,-0.480978399515152,-0.5885858535766602
1697908581751197200,11.468197265625,-0.5233150720596313,0.04322788119316101,-0.5092887878417969
1697908581770167800,11.487167724609375,-0.39382076263427734,0.1861134171485901,-0.4763526916503906
1697908581789138700,11.506138671875,-0.25671494007110596,0.1348753273487091,-0.4783210754394531
1697908581808109300,11.525109375,-0.14121711254119873,0.04699075222015381,-0.3513145446777344
1697908581827080000,11.544079833984375,-0.1584259271621704,-0.045675814151763916,-0.2021493911743164
1697908581846050800,11.56305078125,-0.23148036003112793,-0.252891480922699,-0.007740020751953125
1697908581865021400,11.582021484375,-0.3124384880065918,-0.3607529103755951,0.1556720733642578
1697908581883992300,11.600992431640625,-0.3289783000946045,-0.3458884358406067,0.16063880920410156
1697908581902963000,11.619962890625,-0.2888139486312866,-0.25119757652282715,0.08264636993408203
1697908581921933800,11.638933837890624,-0.20272505283355713,-0.13860556483268738,-0.1611042022705078
1697908581940904400,11.657904541015625,-0.17284917831420898,-0.06218966841697693,-0.3695411682128906
1697908581959875000,11.676875,-0.18637347221374512,-0.04177790880203247,-0.45734119415283203
1697908581978846000,11.695845947265624,-0.234169602394104,-0.14569732546806335,-0.3994026184082031
1697908581997816600,11.714816650390626,-0.24248981475830078,-0.14383986592292786,-0.3563232421875
1697908582016787200,11.733787109375,-0.2527182102203369,-0.12590891122817993,-0.27984619140625
1697908582035758000,11.752758056640625,-0.2667267322540283,-0.15514495968818665,-0.17499160766601562
1697908582054728700,11.771728759765624,-0.19452404975891113,-0.15597739815711975,-0.0777750015258789
1697908582073699600,11.790699462890625,-0.15760362148284912,-0.1240464448928833,0.004515647888183594
1697908582092670200,11.809670166015625,-0.09985196590423584,-0.07495298981666565,-0.027730941772460938
1697908582111640800,11.828640869140624,-0.08206617832183838,-0.029569149017333984,-0.17526531219482422
1697908582130611700,11.84761181640625,-0.09784471988677979,-0.04114994406700134,-0.24068450927734375
1697908582149582300,11.866582275390625,-0.10016834735870361,-0.013110220432281494,-0.28087711334228516
1697908582168553200,11.88555322265625,-0.11291420459747314,-0.02648255228996277,-0.30726146697998047
1697908582187523800,11.90452392578125,-0.14352869987487793,-0.0798197090625763,-0.36537837982177734
1697908582206494500,11.923494384765625,-0.14447689056396484,-0.07542875409126282,-0.2528953552246094
1697908582225465300,11.94246533203125,-0.061167001724243164,0.05864983797073364,-0.06257915496826172
1697908582244436000,11.96143603515625,0.0067293643951416016,0.07723036408424377,0.0067539215087890625
1697908582263406800,11.98040673828125,0.021683216094970703,0.04426988959312439,-0.06149768829345703
1697908582282377500,11.99937744140625,-0.009065866470336914,0.06408554315567017,-0.1530323028564453
1697908582301348000,12.01834814453125,-0.0017197132110595703,0.05451646447181702,-0.17650127410888672
1697908582320319000,12.037319091796874,-0.0599285364151001,0.01923695206642151,-0.19226837158203125
1697908582339289600,12.05628955078125,-0.09012711048126221,0.026573479175567627,-0.14637470245361328
1697908582358260500,12.075260498046875,-0.13405895233154297,0.030109882354736328,-0.06007099151611328
1697908582377231000,12.094231201171874,-0.12693464756011963,0.04559352993965149,-0.05399799346923828
1697908582396201700,12.11320166015625,-0.12853288650512695,0.0057159364223480225,-0.10849857330322266
1697908582415172600,12.132172607421875,-0.08779716491699219,-0.0517193078994751,-0.18657684326171875
1697908582434143200,12.151143310546875,-0.0813450813293457,-0.11748236417770386,-0.1104726791381836
1697908582453114000,12.170114013671874,-0.07780992984771729,-0.09308144450187683,-0.01621532440185547
1697908582472084700,12.189084716796875,-0.07454895973205566,-0.08034396171569824,0.030195236206054688
1697908582491055400,12.208055419921875,-0.08733689785003662,-0.08335602283477783,-0.08401203155517578
1697908582510026200,12.227026123046874,-0.07310163974761963,-0.02604934573173523,-0.1820201873779297
1697908582528996900,12.245996826171876,-0.045252442359924316,0.04758837819099426,-0.1899394989013672
1697908582547967500,12.264967529296875,-0.04002481698989868,0.06968989968299866,-0.11138343811035156
1697908582566938400,12.2839384765625,-0.026145577430725098,0.01066020131111145,-0.0732278823852539
1697908582585909000,12.302908935546874,-0.02625983953475952,-0.035429447889328,-0.06426239013671875
1697908582604880000,12.3218798828125,-0.02911907434463501,-0.022663921117782593,-0.09075546264648438
1697908582623850500,12.3408505859375,-0.009761631488800049,0.023892223834991455,-0.08360004425048828
1697908582642821400,12.3598212890625,0.022220909595489502,0.03822645545005798,-0.08815956115722656
1697908582661792000,12.3787919921875,0.04284030199050903,0.04776373505592346,-0.11797428131103516
1697908582680762600,12.3977626953125,0.06418710947036743,0.06809422373771667,-0.1253976821899414
1697908582699733500,12.4167333984375,0.05084294080734253,0.08666467666625977,-0.17409038543701172
1697908582718704000,12.4357041015625,0.0030156373977661133,0.12809321284294128,-0.24182796478271484
1697908582737674800,12.4546748046875,-0.16336297988891602,0.22875642776489258,-0.28204822540283203
1697908582756645600,12.473645751953125,-0.2567916512489319,0.3394011855125427,-0.20811080932617188
1697908582775616300,12.4926162109375,-0.25482630729675293,0.3265262246131897,0.020018577575683594
1697908582794587100,12.511587158203126,-0.20882612466812134,0.15858879685401917,0.18810176849365234
1697908582813557800,12.530557861328125,-0.20461535453796387,0.07284680008888245,0.08870601654052734
1697908582832528400,12.5495283203125,-0.16131263971328735,0.101239413022995,-0.12418651580810547
1697908582851499300,12.568499267578124,-0.15875005722045898,0.27186962962150574,-0.3550224304199219
1697908582870470000,12.587469970703125,-0.16170209646224976,0.31650957465171814,-0.3894691467285156
1697908582889440500,12.6064404296875,-0.3217200040817261,0.2107834815979004,-0.2289142608642578
1697908582908411400,12.625411376953124,-0.3309131860733032,0.20725592970848083,0.01146697998046875
1697908582927382000,12.644382080078126,-0.29379546642303467,0.1779533326625824,0.0028162002563476562
1697908582946353000,12.663352783203125,-0.25211626291275024,0.1438521444797516,-0.2085590362548828
1697908582965323500,12.682323486328125,-0.23612886667251587,-0.0437391996383667,-0.559382438659668
1697908582984294400,12.70129443359375,-0.2534123659133911,-0.3923654854297638,-0.894474983215332
1697908583003265000,12.72026513671875,-0.16889840364456177,-0.609168291091919,-1.0450372695922852
1697908583022235600,12.739235595703125,-0.17606216669082642,-0.79513019323349,-0.8140926361083984
1697908583041206500,12.75820654296875,-0.29550671577453613,-0.7815881967544556,-0.11444282531738281
1697908583060177200,12.77717724609375,-0.3174084424972534,-0.6895027160644531,0.5315847396850586
1697908583079147800,12.796147705078125,-0.5232581496238708,-0.5677012205123901,0.8739700317382812
1697908583098118700,12.81511865234375,-0.7234094142913818,-0.2287469208240509,0.8975591659545898
1697908583117089300,12.83408935546875,-0.8804636001586914,0.0814380943775177,0.810755729675293
1697908583136060000,12.853059814453125,-1.052181601524353,0.610579252243042,1.0172433853149414
1697908583155030800,12.87203076171875,-1.0750696659088135,0.8949688673019409,1.2396602630615234
1697908583174001400,12.89100146484375,-1.065463900566101,0.8942732810974121,0.907618522644043
1697908583192972300,12.90997216796875,-1.007334589958191,0.6399168968200684,0.4674797058105469
1697908583211943000,12.92894287109375,-0.8965448141098022,0.24695289134979248,-0.032550811767578125
1697908583230913500,12.94791357421875,-0.6430228352546692,0.015398174524307251,-0.5302248001098633
1697908583249884400,12.966884521484374,-0.5856572389602661,-0.21767517924308777,-1.0037822723388672
1697908583268855000,12.98585498046875,-0.7636260390281677,-0.33958500623703003,-1.2127742767333984
1697908583287825700,13.00482568359375,-0.8852140307426453,-0.4003283977508545,-1.079498291015625
1697908583306796500,13.023796630859374,-0.8618303537368774,-0.6539130210876465,-1.0056676864624023
1697908583325767200,13.04276708984375,-0.9042024612426758,-0.6891194581985474,-1.2939949035644531
1697908583344738000,13.061738037109375,-0.8029676675796509,-0.5919478535652161,-1.7256298065185547
1697908583363708700,13.080708740234375,-0.8178209662437439,-0.3044450879096985,-1.870593547821045
1697908583382679600,13.099679443359374,-1.0691667795181274,-0.14232398569583893,-1.809680461883545
1697908583401650200,13.118650146484375,-1.1567108631134033,-0.17612844705581665,-1.6538000106811523
1697908583420620800,13.137620849609375,-0.9267718195915222,-0.29093998670578003,-1.6199588775634766
1697908583439591700,13.156591796875,-0.5918667316436768,-0.19024619460105896,-1.5521974563598633
1697908583458562300,13.175562255859376,-0.5134435892105103,-0.06850653886795044,-1.3367643356323242
1697908583477533000,13.194532958984375,-0.6000877022743225,-0.17956845462322235,-1.2321758270263672
1697908583496503800,13.21350390625,-0.8659640550613403,-0.2969197630882263,-1.2448091506958008
1697908583515474400,13.232474365234374,-1.1608779430389404,-0.2614487111568451,-1.0788917541503906
1697908583534445300,13.2514453125,-0.8396105766296387,-0.6863473653793335,-1.626871109008789
1697908583553416000,13.270416015625,-0.8472682237625122,-0.6098183393478394,-2.0642848014831543
1697908583572386600,13.289386474609374,-1.0045219659805298,-0.5147826671600342,-1.9700264930725098
1697908583591357400,13.308357421875,-1.0395865440368652,-0.5491176843643188,-1.5877323150634766
1697908583610328000,13.327328125,-0.6530146598815918,-0.8146376609802246,-1.035287857055664
1697908583629298700,13.346298583984375,-0.930193305015564,-0.8869427442550659,0.16774940490722656
1697908583648269600,13.36526953125,-1.0140299797058105,-0.4140618145465851,1.0416622161865234
1697908583667240200,13.384240234375,-0.29706668853759766,0.5684691071510315,0.7711687088012695
1697908583686210800,13.4032109375,0.34301257133483887,0.962665319442749,0.41420745849609375
1697908583705181700,13.422181640625,0.40949177742004395,0.4872436225414276,0.09536457061767578
1697908583724152300,13.44115234375,0.5966062545776367,-0.56858891248703,0.4410276412963867
1697908583743123200,13.460123291015625,1.0796632766723633,-0.8418349027633667,0.5061912536621094
1697908583762093800,13.47909375,1.0095491409301758,-0.02960529923439026,0.8936138153076172
1697908583781064700,13.498064697265624,0.8312015533447266,0.800744891166687,1.1922435760498047
1697908583800035300,13.517035400390625,1.274637222290039,0.5636312961578369,0.8230199813842773
1697908583819006000,13.536005859375,1.6904511451721191,0.41642117500305176,0.4582653045654297
1697908583837976800,13.554976806640624,1.528679370880127,0.45631054043769836,0.5111789703369141
1697908583856947500,13.573947509765626,0.9698330163955688,0.28009283542633057,0.6021223068237305
1697908583875918000,13.59291796875,1.0955448150634766,0.10151258111000061,0.5068759918212891
1697908583894889000,13.611888916015625,1.2896795272827148,0.14549696445465088,0.5871210098266602
1697908583913859600,13.630859619140624,1.118062973022461,0.4483824372291565,0.8649463653564453
1697908583932830200,13.649830322265625,0.9874951839447021,0.27346116304397583,0.9861974716186523
1697908583951801000,13.668801025390625,1.0868310928344727,-0.28995826840400696,1.2092933654785156
1697908583970771700,13.687771728515624,1.4159307479858398,-0.22544312477111816,1.5198955535888672
1697908583989742600,13.70674267578125,1.8299081325531006,0.2801314890384674,1.514388084411621
1697908584008713200,13.725713134765625,2.0373904705047607,0.7914576530456543,1.397749900817871
1697908584027683800,13.744683837890625,1.8429689407348633,1.0610582828521729,1.3222551345825195
1697908584046654700,13.76365478515625,1.2637269496917725,0.5177868604660034,1.2687873840332031
1697908584065625300,13.782625244140625,1.1505486965179443,0.12619295716285706,1.112966537475586
1697908584084596200,13.80159619140625,1.0115487575531006,-0.05474218726158142,1.1177120208740234
1697908584103566800,13.82056689453125,1.3081339597702026,0.16146457195281982,1.0277328491210938
1697908584122537500,13.839537353515626,1.5253289937973022,0.2464318573474884,0.7813844680786133
1697908584141508400,13.85850830078125,1.197588324546814,0.2812472879886627,0.8988780975341797
1697908584160479000,13.87747900390625,1.1255487203598022,0.2707873582839966,1.0139827728271484
1697908584179449600,13.89644970703125,1.003767490386963,0.26527950167655945,1.1022815704345703
1697908584198420500,13.91542041015625,0.9117180109024048,0.19623321294784546,1.064864158630371
1697908584217391000,13.93439111328125,1.0545933246612549,-0.1570439338684082,0.6402626037597656
1697908584236362000,13.953362060546874,0.8999165296554565,0.04422026872634888,0.20896339416503906
1697908584255332600,13.97233251953125,0.8103700876235962,0.0546003133058548,0.07442951202392578
1697908584274303200,13.99130322265625,0.7503871917724609,0.04822317138314247,0.16395854949951172
1697908584293274000,14.010274169921875,0.9452314376831055,0.0845191702246666,0.04397869110107422
1697908584312244700,14.02924462890625,0.75471031665802,0.1547785848379135,0.21550846099853516
1697908584331215400,14.04821533203125,0.597954273223877,0.05223377048969269,0.10623550415039062
1697908584350186200,14.067186279296875,0.5211594104766846,0.010582946240901947,0.058002471923828125
1697908584369156900,14.086156982421874,0.6114703416824341,0.1548393964767456,-0.035302162170410156
1697908584388127500,14.10512744140625,0.6820814609527588,0.17480628192424774,0.0898580551147461
1697908584407098400,14.124098388671875,0.6525437831878662,0.2891845703125,0.4166603088378906
1697908584426069000,14.143069091796875,0.8406057357788086,0.3639332056045532,0.588109016418457
1697908584445039600,14.16203955078125,0.9162840843200684,0.2753446698188782,0.7241010665893555
1697908584464010500,14.181010498046875,1.2426581382751465,0.40923964977264404,0.9292182922363281
1697908584482981000,14.199981201171875,1.3714679479599,0.6265743374824524,0.8983221054077148
1697908584501952000,14.218951904296874,1.0472911596298218,0.3681051433086395,0.9224987030029297
1697908584520922600,14.237922607421876,0.6312134265899658,0.15669403970241547,1.0630760192871094
1697908584539893200,14.256893310546875,1.0156434774398804,0.24438048899173737,1.0770883560180664
1697908584558864100,14.275864013671875,0.9064985513687134,0.17522889375686646,1.3625431060791016
1697908584577834800,14.294834716796874,0.9033792018890381,0.19091853499412537,1.7066335678100586
1697908584596805600,14.3138056640625,1.0389361381530762,0.3768499493598938,1.6067924499511719
1697908584615776300,14.3327763671875,1.0999653339385986,0.31146305799484253,1.3744840621948242
1697908584634747000,14.351746826171874,0.817141056060791,-0.09260748326778412,1.3437566757202148
1697908584653717800,14.3707177734375,0.9699643850326538,-0.14878563582897186,1.4348831176757812
1697908584672688400,14.3896884765625,1.0605418682098389,0.28946223855018616,1.5470972061157227
1697908584691659000,14.408658935546875,1.1976475715637207,0.48919323086738586,1.3606042861938477
1697908584710630000,14.4276298828125,1.080715537071228,0.2209746539592743,1.1680450439453125
1697908584729600500,14.4466005859375,0.9702315330505371,0.038187965750694275,1.0390987396240234
1697908584748571100,14.465571044921875,0.9530453681945801,0.2825206220149994,0.9381303787231445
1697908584767542000,14.4845419921875,0.8565768003463745,0.21669277548789978,0.9841060638427734
1697908584786512600,14.5035126953125,1.0972357988357544,-0.15101313591003418,0.9663934707641602
1697908584805483500,14.5224833984375,1.3287400007247925,-0.12215334177017212,0.7827930450439453
1697908584824454100,14.5414541015625,1.454836368560791,0.1869676411151886,0.42659854888916016
1697908584843424800,14.5604248046875,1.413558840751648,0.246463805437088,-0.0009822845458984375
1697908584862395600,14.579395751953125,1.444854497909546,0.18221533298492432,-0.29227256774902344
1697908584881366300,14.5983662109375,1.277153730392456,0.13755863904953003,-0.601567268371582
1697908584900337200,14.617337158203124,0.8317767977714539,0.3784216344356537,-0.9014205932617188
1697908584919307800,14.636307861328126,0.5375709533691406,0.4576360583305359,-1.1976699829101562
1697908584938278400,14.6552783203125,0.3190808892250061,0.2708146870136261,-1.3252935409545898
1697908584957249300,14.674249267578125,0.19263601303100586,-0.12651050090789795,-1.4830312728881836
1697908584976220000,14.693219970703124,0.2948405146598816,-0.1546366810798645,-1.4200563430786133
1697908584995190500,14.7121904296875,0.31421780586242676,-0.14626288414001465,-1.1896581649780273
1697908585014161400,14.731161376953125,0.2622793912887573,-0.14722010493278503,-0.7570676803588867
1697908585033132000,14.750132080078124,0.2714998722076416,-0.1445590853691101,-0.27634620666503906
1697908585052102700,14.7691025390625,0.10979580879211426,-0.12316453456878662,-0.15063858032226562
1697908585071073500,14.788073486328125,-0.03844892978668213,-0.11961224675178528,-0.07781696319580078
1697908585090044200,14.807044189453125,-0.3452364206314087,-0.19297847151756287,-0.03127002716064453
1697908585109014800,14.826014892578126,-0.9824750423431396,-0.3192981779575348,-0.2577066421508789
1697908585127985700,14.844985595703125,-1.8666017055511475,-0.11284300684928894,-0.5018291473388672
1697908585146956300,14.863956298828125,-2.1579556465148926,0.08947861194610596,-1.1560544967651367
1697908585165927200,14.88292724609375,-2.197009563446045,0.058045268058776855,-1.880864143371582
1697908585184897800,14.901897705078126,-2.728917360305786,-0.2629036009311676,-2.4155797958374023
1697908585203868400,14.920868408203125,-2.861807346343994,-0.6277753114700317,-2.6705574989318848
1697908585222839300,14.93983935546875,-2.915442705154419,-0.9334232807159424,-2.5994253158569336
1697908585241810000,14.958809814453126,-2.6278505325317383,-1.0831074714660645,-2.2445902824401855
1697908585260780800,14.97778076171875,-2.3721227645874023,-1.0387986898422241,-1.5787830352783203
1697908585279751400,14.99675146484375,-2.045175075531006,-0.9076730608940125,-0.8829555511474609
1697908585298722000,15.01572216796875,-1.878589391708374,-0.4357682466506958,-0.6016340255737305
1697908585317693000,15.03469287109375,-1.931662917137146,0.11620169878005981,-0.6785354614257812
1697908585336663600,15.05366357421875,-1.9266260862350464,0.43908578157424927,-0.7442331314086914
1697908585355634200,15.07263427734375,-1.6317858695983887,0.5611878037452698,-1.1780824661254883
1697908585374605000,15.09160498046875,-1.4068900346755981,0.2672862410545349,-1.9422245025634766
1697908585393575700,15.11057568359375,-1.442436695098877,-0.09903828799724579,-2.327883243560791
1697908585412546300,15.12954638671875,-1.6061961650848389,-0.48004472255706787,-2.1290183067321777
1697908585431517200,15.14851708984375,-1.5352694988250732,-0.6165487170219421,-1.719527244567871
1697908585450487800,15.16748779296875,-1.4501612186431885,-0.5728188753128052,-1.369302749633789
1697908585469458700,15.186458740234375,-1.3375680446624756,-0.419100821018219,-1.3981142044067383
1697908585488429300,15.20542919921875,-1.3048514127731323,-0.42614108324050903,-1.5251245498657227
1697908585507400000,15.22439990234375,-1.2307404279708862,-0.5444775819778442,-1.1920232772827148
1697908585526370800,15.243370849609375,-1.2853949069976807,-0.35622715950012207,-0.7694015502929688
1697908585545341400,15.262341552734375,-1.2490568161010742,-0.22295254468917847,-0.2019062042236328
1697908585564312000,15.28131201171875,-1.0249722003936768,-0.3138166069984436,-0.23211383819580078
1697908585583283000,15.300282958984376,-0.9280698299407959,-0.40049949288368225,-0.563298225402832
1697908585602253600,15.319253662109375,-1.0174148082733154,-0.3074297308921814,-0.7333087921142578
1697908585621224400,15.338224365234375,-0.9589201211929321,-0.1616155505180359,-0.7162046432495117
1697908585640195000,15.357195068359376,-1.060116171836853,-0.29421064257621765,-0.6057615280151367
1697908585659165700,15.376165771484375,-1.1706626415252686,-0.40512996912002563,-0.4747781753540039
1697908585678136600,15.395136474609375,-1.2038328647613525,-0.5652052760124207,-0.42075443267822266
1697908585697107200,15.414107177734374,-1.129807472229004,-0.6564506888389587,-0.27797794342041016
1697908585716077800,15.433077880859376,-1.0794486999511719,-0.5622233748435974,-0.10980415344238281
1697908585735048700,15.452048583984375,-1.0137909650802612,-0.3692970871925354,-0.04910087585449219
1697908585754019300,15.471019287109375,-0.7545375823974609,-0.23326843976974487,0.0027618408203125
1697908585772990000,15.489989990234376,-0.7378350496292114,-0.28344234824180603,0.2819833755493164
1697908585791960800,15.5089609375,-0.8206924200057983,-0.33106285333633423,0.5047092437744141
1697908585810931500,15.527931396484375,-0.8490381240844727,-0.10762552171945572,0.3602571487426758
1697908585829902000,15.546902099609374,-0.8021782636642456,0.18959949910640717,-0.050647735595703125
1697908585848873000,15.565873046875,-0.8822004795074463,0.37942075729370117,-0.34608936309814453
1697908585867843600,15.584843505859375,-0.9844939112663269,0.4026116132736206,-0.28546810150146484
1697908585886814500,15.603814453125,-0.9167490005493164,0.33920422196388245,-0.2358379364013672
1697908585905785000,15.62278515625,-0.6373522281646729,0.08707673847675323,-0.25234317779541016
1697908585924755700,15.641755615234375,-0.4559429883956909,-0.17167876660823822,-0.3295726776123047
1697908585943726600,15.6607265625,-0.33887481689453125,-0.30249273777008057,-0.4755535125732422
1697908585962697200,15.679697265625,-0.4412541389465332,-0.21351681649684906,-0.45076847076416016
1697908585981668000,15.698668212890626,-0.47390663623809814,-0.0409492552280426,-0.1999197006225586
1697908586000638700,15.717638671875,-0.3746368885040283,0.3788147270679474,0.1233053207397461
1697908586019609300,15.736609375,-0.38155877590179443,0.76268070936203,0.1917285919189453
1697908586038580200,15.755580322265626,-0.5090882778167725,0.5745121240615845,0.03058147430419922
1697908586057550800,15.77455078125,-0.616357684135437,0.1280897557735443,-0.3181734085083008
1697908586076521500,15.793521484375,-0.6750669479370117,-0.150488018989563,-0.48106956481933594
1697908586095492400,15.812492431640624,-0.7242906093597412,-0.3681405782699585,-0.41074466705322266
1697908586114463000,15.831462890625,-0.794385552406311,-0.5038182735443115,-0.2956409454345703
1697908586133433600,15.85043359375,-0.7341022491455078,-0.4849814176559448,-0.007477760314941406
1697908586152404500,15.869404541015625,-0.457899808883667,-0.2685893177986145,0.0833883285522461
1697908586171375000,15.888375,-0.3222309350967407,-0.08886364102363586,-0.05157947540283203
1697908586190345700,15.907345703125,-0.29385268688201904,-0.03610607981681824,-0.08147907257080078
1697908586209316600,15.926316650390625,-0.38741159439086914,0.049314647912979126,-0.08552360534667969
1697908586228287200,15.945287353515624,-0.5058597922325134,0.07032707333564758,-0.07611656188964844
1697908586247258000,15.964258056640626,-0.46236228942871094,-0.0511147677898407,-0.1630687713623047
1697908586266228700,15.983228759765625,-0.35188591480255127,-0.09405368566513062,-0.2832918167114258
1697908586285199400,16.002199462890626,-0.24832916259765625,-0.08902576565742493,-0.3960247039794922
1697908586304170200,16.021170166015626,-0.15246367454528809,-0.05835306644439697,-0.3273611068725586
1697908586323140900,16.040140869140625,-0.10227847099304199,0.04051917791366577,-0.12505817413330078
1697908586342111500,16.059111572265625,-0.09329259395599365,0.11599487066268921,0.007137298583984375
1697908586361082400,16.078082275390624,-0.04289734363555908,-0.019510924816131592,0.020511627197265625
1697908586380053000,16.097052978515624,0.00243222713470459,-0.24096351861953735,-0.06483650207519531
1697908586399023900,16.11602392578125,-0.06859183311462402,-0.33276161551475525,-0.09835338592529297
1697908586417994500,16.134994384765626,-0.16327321529388428,-0.36699336767196655,-0.09559822082519531
1697908586436965000,16.153965087890626,-0.17325639724731445,-0.3438858687877655,0.006764411926269531
1697908586455936000,16.17293603515625,-0.13598895072937012,-0.3141949474811554,-0.040610313415527344
1697908586474906600,16.19190673828125,-0.09359312057495117,-0.22714951634407043,-0.11175727844238281
1697908586493877200,16.210877197265624,-0.0249251127243042,-0.18481376767158508,-0.14023208618164062
1697908586512848100,16.22984814453125,-0.017628908157348633,-0.037153542041778564,-0.0744924545288086
1697908586531818800,16.24881884765625,-0.06488776206970215,0.08408457040786743,-0.09992790222167969
1697908586550789400,16.267789306640626,-0.06542003154754639,0.06982898712158203,-0.14069461822509766
1697908586569760300,16.28676025390625,-0.09867715835571289,0.00801512598991394,-0.16849517822265625
1697908586588731000,16.30573095703125,-0.13057684898376465,-0.08619502186775208,-0.1958475112915039
1697908586607701500,16.324701416015625,-0.14981675148010254,-0.2126826047897339,-0.17514991760253906
1697908586626672400,16.34367236328125,-0.16978669166564941,-0.2895420789718628,-0.1714649200439453
1697908586645643000,16.36264306640625,-0.21356719732284546,-0.407454252243042,-0.20444488525390625
1697908586664614000,16.38161376953125,-0.3000955581665039,-0.4613322913646698,-0.23089027404785156
1697908586683584500,16.40058447265625,-0.325276255607605,-0.5182597041130066,-0.17894268035888672
1697908586702555100,16.41955517578125,-0.41563355922698975,-0.7149426937103271,-0.19188785552978516
1697908586721526000,16.438526123046874,-0.4253029227256775,-0.8692723512649536,-0.10875320434570312
1697908586740496600,16.45749658203125,-0.37422215938568115,-0.7309643030166626,0.048102378845214844
1697908586759467300,16.47646728515625,-0.29721951484680176,-0.5895249247550964,0.10746574401855469
1697908586778438100,16.495438232421876,-0.06543993949890137,-0.5008842349052429,-0.06842899322509766
1697908586797408800,16.51440869140625,0.23346376419067383,-0.3993290066719055,-0.6517114639282227
1697908586816379600,16.533379638671875,0.4702610969543457,0.0198591947555542,-1.4099674224853516
1697908586835350300,16.552350341796874,0.7665239572525024,0.6845028400421143,-1.9466919898986816
1697908586854321000,16.57132080078125,0.09857940673828125,1.5650888681411743,-1.8981618881225586
1697908586873291800,16.590291748046877,-0.9621310234069824,1.8405364751815796,-1.2612285614013672
1697908586892262400,16.609262451171876,-1.2667080163955688,1.4028332233428955,0.0032186508178710938
1697908586911233000,16.62823291015625,-1.1357319355010986,0.7123330235481262,1.1296491622924805
1697908586930204000,16.647203857421875,-1.343078374862671,0.20985646545886993,1.9387397766113281
1697908586949174500,16.666174560546875,-1.2141618728637695,-0.30148276686668396,1.8021125793457031
1697908586968145200,16.685145263671874,-1.0767823457717896,-0.598886251449585,1.3236103057861328
1697908586987116000,16.704115966796873,-0.9082551002502441,-0.21129119396209717,0.8972110748291016
1697908587006086700,16.723086669921877,-0.62054443359375,0.3137200176715851,0.13337326049804688
1697908587025057300,16.742057373046876,-0.6413360834121704,0.407653272151947,-0.7776384353637695
1697908587044028200,16.761028076171876,-1.0860233306884766,0.4452974796295166,-1.4137763977050781
1697908587062998800,16.779998779296875,-1.310347557067871,0.7371483445167542,-1.779780387878418
1697908587081969400,16.798969482421874,-1.495964765548706,0.9570516347885132,-2.133838653564453
1697908587100940300,16.817940185546874,-1.5081367492675781,0.8790236711502075,-2.101860523223877
1697908587119911000,16.836910888671873,-1.262876272201538,0.7207316160202026,-1.919581413269043
1697908587138881800,16.8558818359375,-1.135374665260315,0.3511056900024414,-1.5765581130981445
1697908587157852400,16.874852294921876,-1.0013192892074585,0.2693885564804077,-0.9768447875976562
1697908587176823000,16.893822998046875,-0.7860332727432251,0.6326302886009216,-0.38876819610595703
1697908587195794000,16.9127939453125,-0.7762197852134705,0.9055013656616211,-0.16215038299560547
1697908587214764500,16.9317646484375,-0.807378888130188,0.8901267051696777,-0.39708614349365234
1697908587233735200,16.950735107421874,-0.9967062473297119,0.7363115549087524,-0.7231950759887695
1697908587252706000,16.9697060546875,-1.0553412437438965,0.6398597359657288,-0.7200927734375
1697908587271676700,16.9886767578125,-1.3532087802886963,0.39300405979156494,-0.5092430114746094
1697908587290647300,17.007647216796876,-1.4094326496124268,0.406419038772583,-0.5192365646362305
1697908587309618200,17.0266181640625,-1.219864845275879,0.22186017036437988,-0.8165998458862305
1697908587328588800,17.0455888671875,-1.2184700965881348,-0.10182720422744751,-1.0560922622680664
1697908587347559700,17.0645595703125,-1.3086261749267578,-0.19528812170028687,-1.1357107162475586
1697908587366530300,17.0835302734375,-1.0878249406814575,-0.2761204242706299,-1.1161794662475586
1697908587385501000,17.1025009765625,-1.0389063358306885,-0.04169631004333496,-0.8342475891113281
1697908587404471800,17.121471923828125,-0.4410240948200226,0.865496039390564,-0.2096872329711914
1697908587423442400,17.1404423828125,-0.43206167221069336,1.73526930809021,0.22511768341064453
1697908587442413000,17.1594130859375,-1.1085739135742188,1.8029232025146484,0.9135923385620117
1697908587461384000,17.178384033203123,-1.7715766429901123,0.9372615814208984,1.2145814895629883
1697908587480354600,17.1973544921875,-1.5992486476898193,-0.6187018156051636,0.6384601593017578
1697908587499325200,17.2163251953125,-0.4212617874145508,-1.0113441944122314,-0.21770191192626953
1697908587518296000,17.235296142578125,0.7352566123008728,-0.07122635841369629,-0.7740993499755859
1697908587537266700,17.2542666015625,0.7657090425491333,0.6427528262138367,-0.2589530944824219
1697908587556237600,17.273237548828124,0.2593381404876709,0.5037336945533752,0.31150245666503906
1697908587575208200,17.292208251953124,0.44450855255126953,-0.18868893384933472,0.993128776550293
1697908587594178800,17.3111787109375,1.591722011566162,-0.7374968528747559,0.5319480895996094
1697908587613149700,17.330149658203126,1.609330415725708,-0.8400703072547913,0.2220897674560547
1697908587632120300,17.349120361328126,1.7738773822784424,-0.829646110534668,-0.13724040985107422
1697908587651091000,17.368091064453125,1.9891802072525024,-0.6462037563323975,0.07537841796875
1697908587670061800,17.387061767578125,2.0030040740966797,-0.6008176207542419,0.7219858169555664
1697908587689032400,17.406032470703124,1.9413418769836426,-0.5305859446525574,1.0560131072998047
1697908587708003000,17.425003173828124,2.0863735675811768,-0.521680474281311,1.0955305099487305
1697908587726974000,17.443973876953127,2.026041269302368,-0.42976582050323486,1.2748527526855469
1697908587745944600,17.462944580078126,2.043292760848999,-0.13505685329437256,1.4377689361572266
1697908587764915200,17.481915283203126,1.885956883430481,0.0295407772064209,1.432173728942871
1697908587783886000,17.500885986328125,1.7830079793930054,-0.22641849517822266,1.1284894943237305
1697908587802856700,17.519856689453125,1.563783884048462,-0.4676661491394043,1.4575614929199219
1697908587821827600,17.53882763671875,1.383925199508667,-0.4189624786376953,1.461470603942871
1697908587840798200,17.557798095703124,1.0976264476776123,-0.5097283720970154,1.0631084442138672
1697908587859768800,17.576768798828127,1.0015637874603271,-0.7267546653747559,0.7196207046508789
1697908587878739700,17.59573974609375,1.2282748222351074,-0.5029493570327759,0.8180904388427734
1697908587897710300,17.61471044921875,1.6450260877609253,0.05608707666397095,0.7288637161254883
1697908587916681200,17.63368115234375,1.5134025812149048,0.24076110124588013,0.9077825546264648
1697908587935651800,17.65265185546875,1.2808246612548828,0.08150434494018555,1.1393585205078125
1697908587954622500,17.67162255859375,0.92829430103302,-0.09798318147659302,1.1282682418823242
1697908587973593300,17.69059326171875,0.9578461647033691,-0.4052765965461731,0.9187889099121094
1697908587992564000,17.70956396484375,1.1707338094711304,-0.296217143535614,0.7820596694946289
1697908588011534600,17.72853466796875,1.0181150436401367,0.30795758962631226,0.7453241348266602
1697908588030505500,17.74750537109375,0.8876725435256958,0.12548261880874634,0.5813961029052734
1697908588049476000,17.76647607421875,0.8632519245147705,-0.35355144739151,0.4299640655517578
1697908588068446700,17.78544677734375,0.7770404815673828,-0.6635712385177612,0.5339994430541992
1697908588087417600,17.80441748046875,0.718646764755249,-0.3464018702507019,1.0276365280151367
1697908588106388200,17.82338818359375,0.5152082443237305,-0.22756630182266235,0.8108339309692383
1697908588125358800,17.84235888671875,0.4461185932159424,-0.36114391684532166,0.31313610076904297
1697908588144329700,17.861329833984374,0.70833420753479,-0.19708901643753052,0.48831939697265625
1697908588163300400,17.88030029296875,0.724970817565918,0.06042611598968506,0.48711109161376953
1697908588182271200,17.899271240234373,0.5077800750732422,-0.159135103225708,0.20916080474853516
1697908588201241900,17.918241943359376,0.3751339912414551,-0.4996136426925659,0.09521293640136719
1697908588220212500,17.93721240234375,0.32472872734069824,-0.356402724981308,-0.024486541748046875
1697908588239183400,17.956183349609375,0.18583226203918457,-0.056851983070373535,-0.029745101928710938
1697908588258154000,17.975154052734375,-0.01748967170715332,0.0030058622360229492,0.046504974365234375
1697908588277124600,17.99412451171875,0.13290977478027344,0.05748945474624634,0.38985729217529297
1697908588296095500,18.013095458984374,0.5364518165588379,0.2857345938682556,0.68218994140625
1697908588315066000,18.032066162109373,0.37793922424316406,0.3405657410621643,0.860809326171875
1697908588334037000,18.051037109375,0.2569863796234131,-0.13943862915039062,0.6974754333496094
1697908588353007600,18.070007568359376,0.7438187599182129,-0.39724627137184143,0.6797466278076172
1697908588371978200,18.088978271484375,1.4690642356872559,0.065945565700531,1.272221565246582
1697908588390949000,18.10794921875,1.5790345668792725,0.32793128490448,1.5864982604980469
1697908588409919700,18.126919677734374,1.2549443244934082,0.27204930782318115,1.3473873138427734
1697908588428890400,18.145890380859374,1.2643241882324219,-0.4417191743850708,1.0333013534545898
1697908588447861200,18.164861328125,1.426555871963501,-0.29453879594802856,1.2339868545532227
1697908588466832000,18.183831787109376,1.5576808452606201,0.06298947334289551,1.2689332962036133
1697908588485802500,18.202802490234376,1.4365499019622803,0.1898428201675415,1.2609624862670898
1697908588504773400,18.2217734375,1.3201971054077148,0.1242859959602356,1.2173242568969727
1697908588523744000,18.240743896484375,1.0133790969848633,-0.032196223735809326,1.1289091110229492
1697908588542714600,18.259714599609374,0.8830957412719727,-0.5577189326286316,0.9830360412597656
1697908588561685500,18.278685546875,0.9274506568908691,-0.642993688583374,1.005279541015625
1697908588580656000,18.29765625,0.7494509220123291,-0.6851308941841125,0.8138027191162109
1697908588599626800,18.316626708984376,0.600785493850708,-0.8323804140090942,0.5977039337158203
1697908588618597600,18.33559765625,0.8917500972747803,-0.8755588531494141,0.5109443664550781
1697908588637568300,18.354568359375,1.0225989818572998,-0.692527711391449,0.5509891510009766
1697908588656539100,18.3735390625,1.1381944417953491,-0.38906270265579224,0.3477621078491211
1697908588675509800,18.392509765625,1.1999222040176392,-0.24097806215286255,-0.06828784942626953
1697908588694480400,18.41148046875,1.2551873922348022,-0.24459314346313477,-0.5461406707763672
1697908588713451300,18.430451171875,1.513626217842102,-0.21127170324325562,-0.9604625701904297
1697908588732422000,18.449421875,1.590905785560608,-0.3057575523853302,-1.2897729873657227
1697908588751392500,18.468392578125,1.4489703178405762,-0.28372567892074585,-1.2651910781860352
1697908588770363400,18.48736328125,1.2803701162338257,-0.20986947417259216,-0.9051570892333984
1697908588789334000,18.506333984375,1.1183545589447021,-0.20928955078125,-0.6389980316162109
1697908588808305000,18.525304931640626,1.051282525062561,-0.12304016947746277,-0.394927978515625
1697908588827275500,18.544275634765626,0.9768260717391968,-0.0999724268913269,-0.09484004974365234
1697908588846246100,18.56324609375,0.8875775337219238,-0.09274348616600037,-0.13401126861572266
1697908588865217000,18.582217041015625,0.7301074266433716,-0.21854034066200256,-0.3981800079345703
1697908588884187600,18.601187744140624,0.6576886177062988,-0.25255709886550903,-0.5261201858520508
1697908588903158300,18.620158203125,0.5665106773376465,-0.21235275268554688,-0.43360424041748047
1697908588922129200,18.639129150390627,0.4904533624649048,0.5331186652183533,-0.1677083969116211
1697908588941099800,18.658099853515626,0.2791140079498291,1.2516491413116455,-0.007537841796875
1697908588960070400,18.6770703125,-0.7469569444656372,1.338030457496643,0.11029243469238281
1697908588979041300,18.696041259765625,-2.3743784427642822,0.9838677048683167,-0.3161497116088867
1697908588998012000,18.715011962890625,-3.0110583305358887,0.4709159731864929,-1.2100458145141602
1697908589016982800,18.733982666015624,-3.2271828651428223,0.13474291563034058,-1.9611539840698242
1697908589035953400,18.752953369140624,-3.281208038330078,-0.3343416452407837,-2.356381893157959
1697908589054924000,18.771924072265627,-2.7595674991607666,-0.39348530769348145,-2.333066463470459
1697908589073895000,18.79089501953125,-2.007035493850708,-0.13323354721069336,-2.008615016937256
1697908589092865500,18.809865478515626,-1.8626331090927124,0.39807140827178955,-0.9637870788574219
1697908589111836200,18.828836181640625,-1.9610755443572998,1.1059308052062988,0.0024805068969726562
1697908589130807000,18.84780712890625,-1.878333568572998,1.3342574834823608,0.3127431869506836
1697908589149777700,18.866777587890624,-1.6718029975891113,0.8911553621292114,-0.09288406372070312
1697908589168748300,18.885748291015624,-1.8169811964035034,0.14564943313598633,-0.4216184616088867
1697908589187719200,18.90471923828125,-2.0693135261535645,-0.34740227460861206,-0.7036609649658203
1697908589206689800,18.923689697265626,-2.2867321968078613,-0.6801326274871826,-1.2495050430297852
1697908589225660400,18.942660400390626,-2.399519920349121,-0.9309816360473633,-1.9888577461242676
1697908589244631300,18.96163134765625,-2.2858662605285645,-0.9238200187683105,-2.5871963500976562
1697908589263602000,18.980601806640625,-2.047008514404297,-0.7735501527786255,-2.976437568664551
1697908589282572500,18.999572509765624,-1.862851619720459,-0.7306980490684509,-3.2493743896484375
1697908589301543400,19.01854345703125,-1.6070706844329834,-0.8094375133514404,-3.3799285888671875
1697908589320514000,19.03751416015625,-1.4984002113342285,-0.6360148787498474,-2.921994209289551
1697908589339484700,19.056484619140626,-1.2717878818511963,0.0013477802276611328,-2.019606590270996
1697908589358455600,19.07545556640625,-0.9127092361450195,0.4698857069015503,-1.2191286087036133
1697908589377426200,19.09442626953125,-0.5798236131668091,0.9099071025848389,-0.3901643753051758
1697908589396397000,19.11339697265625,-0.49809324741363525,1.3186557292938232,0.14706802368164062
1697908589415367700,19.13236767578125,-0.4631839990615845,1.2155166864395142,0.22337722778320312
1697908589434338300,19.15133837890625,-0.3335585594177246,0.8671861886978149,0.0011892318725585938
1697908589453309200,19.17030908203125,-0.35949230194091797,0.9013471603393555,-0.5184717178344727
1697908589472279800,19.18927978515625,-0.4893723726272583,0.9281197190284729,-1.000335693359375
1697908589491250700,19.208250732421874,-0.5372680425643921,0.874789834022522,-1.1698932647705078
1697908589510221300,19.22722119140625,-0.6405160427093506,0.6597335338592529,-0.932551383972168
1697908589529192000,19.24619189453125,-0.6368763446807861,0.31892502307891846,-0.47776126861572266
1697908589548162800,19.265162841796876,-0.5436960458755493,0.11497187614440918,0.1310110092163086
1697908589567133400,19.284133544921875,-0.5922023057937622,0.054128050804138184,0.6030406951904297
1697908589586104000,19.30310400390625,-0.7189329862594604,0.048542559146881104,0.8059844970703125
1697908589605075000,19.322074951171874,-0.9732846021652222,0.024024516344070435,0.6365833282470703
1697908589624045600,19.341045654296874,-1.0251705646514893,0.19851267337799072,0.5152730941772461
1697908589643016200,19.36001611328125,-1.0430779457092285,0.18443521857261658,0.7233505249023438
1697908589661987000,19.378987060546876,-1.0306453704833984,-0.10490554571151733,0.7810201644897461
1697908589680957700,19.397957763671876,-0.9059228897094727,-0.2964811325073242,0.5705347061157227
1697908589699928300,19.41692822265625,-0.9756762981414795,-0.2639624774456024,0.05073833465576172
1697908589718899200,19.435899169921875,-0.9692018032073975,-0.059308022260665894,-0.4236297607421875
1697908589737869800,19.454869873046874,-0.901140570640564,0.028680503368377686,-0.7823734283447266
1697908589756840700,19.4738408203125,-0.8013308048248291,-0.1778564453125,-0.9086809158325195
1697908589775811300,19.492811279296873,-0.8400620222091675,-0.16902053356170654,-0.6142215728759766
1697908589794782000,19.511781982421876,-0.6747714281082153,-0.07775670289993286,-0.17811298370361328
1697908589813752800,19.5307529296875,-0.44907331466674805,-0.009705334901809692,0.11269283294677734
1697908589832723500,19.549723388671875,-0.3711111545562744,-0.010432660579681396,0.11359405517578125
1697908589851694000,19.568694091796875,-0.325028657913208,-0.06943720579147339,-0.03529930114746094
1697908589870665000,19.5876650390625,-0.3026787042617798,-0.02722838521003723,-0.0559844970703125
1697908589889635600,19.606635498046874,-0.34726619720458984,0.021991610527038574,-0.12087726593017578
1697908589908606200,19.625606201171873,-0.38794922828674316,-0.05035308003425598,-0.28522491455078125
1697908589927577000,19.6445771484375,-0.42164647579193115,-0.18040522933006287,-0.41760730743408203
1697908589946547700,19.663547607421876,-0.4236578941345215,-0.33364030718803406,-0.5391521453857422
1697908589965518600,19.6825185546875,-0.41522085666656494,-0.40508100390434265,-0.5132637023925781
1697908589984489200,19.7014892578125,-0.37414026260375977,-0.42458996176719666,-0.3999052047729492
1697908590003459800,19.7204599609375,-0.3196597099304199,-0.2742007374763489,-0.09603214263916016
1697908590022430700,19.7394306640625,-0.19154608249664307,-0.12301172316074371,0.12675189971923828
1697908590041401300,19.7584013671875,-0.12368953227996826,0.014237374067306519,0.10603618621826172
1697908590060372000,19.7773720703125,-0.03607666492462158,0.10839618742465973,-0.09343528747558594
1697908590079342800,19.7963427734375,-0.07000303268432617,0.10756658017635345,-0.28186988830566406
1697908590098313500,19.8153134765625,-0.12911498546600342,0.10625319182872772,-0.4167957305908203
1697908590117284000,19.8342841796875,-0.22480106353759766,0.09389741718769073,-0.36234378814697266
1697908590136255000,19.8532548828125,-0.2686748504638672,0.04644104838371277,-0.2304706573486328
1697908590155225600,19.8722255859375,-0.16897737979888916,-0.04770989716053009,-0.11635208129882812
1697908590174196500,19.891196533203125,-0.11369633674621582,-0.08409614861011505,-0.10648536682128906
1697908590193167000,19.9101669921875,-0.15494608879089355,-0.04563403129577637,-0.0804738998413086
1697908590212137700,19.9291376953125,-0.21913504600524902,0.02936670184135437,-0.07407093048095703
1697908590231108600,19.948108642578124,-0.2710561752319336,0.07716505229473114,-0.10777950286865234
1697908590250079200,19.967079345703127,-0.2677210569381714,0.01819947361946106,-0.18906784057617188
1697908590269049900,19.9860498046875,-0.27593111991882324,-0.023899927735328674,-0.19055843353271484
1697908590288020700,20.005020751953126,-0.26344871520996094,-0.12500044703483582,-0.13537216186523438
1697908590306991400,20.023991455078125,-0.2364809513092041,-0.09467782080173492,-0.1476736068725586
1697908590325962000,20.0429619140625,-0.2047290802001953,0.0058722347021102905,-0.10930252075195312
1697908590344932900,20.061932861328124,-0.2247161865234375,-0.018576711416244507,-0.12394046783447266
1697908590363903500,20.080903564453124,-0.28232765197753906,0.013335660099983215,-0.1473398208618164
1697908590382874000,20.0998740234375,-0.33791857957839966,0.04593564569950104,-0.08585548400878906
1697908590401845000,20.118844970703126,-0.3932899236679077,0.044418200850486755,-0.0033655166625976562
1697908590420815600,20.137815673828126,-0.36626511812210083,0.006017357110977173,-0.0050449371337890625
1697908590439786500,20.156786376953125,-0.277573823928833,0.026526734232902527,0.0030574798583984375
1697908590458757000,20.175757080078125,-0.19714069366455078,0.08669149875640869,-0.059502601623535156
1697908590477727700,20.194727783203124,-0.20378327369689941,0.20044951140880585,-0.1219329833984375
1697908590496698600,20.21369873046875,-0.2444915771484375,0.2433057427406311,-0.1056671142578125
1697908590515669200,20.232669189453127,-0.2383972406387329,0.32259657979011536,-0.16390514373779297
1697908590534639900,20.251639892578126,-0.3163987398147583,0.3065941631793976,-0.15254783630371094
1697908590553610800,20.27061083984375,-0.3507962226867676,0.3922339677810669,-0.21376419067382812
1697908590572581400,20.289581298828125,-0.35449129343032837,0.40442296862602234,-0.1187906265258789
1697908590591552300,20.30855224609375,-0.3206283450126648,0.29212838411331177,0.009843826293945312
1697908590610523000,20.32752294921875,-0.16865479946136475,0.26501229405403137,0.007777214050292969
1697908590629493500,20.346493408203123,-0.05765342712402344,0.2935323119163513,-0.018444061279296875
1697908590648464400,20.36546435546875,-0.01526033878326416,0.2361423373222351,-0.05833148956298828
1697908590667435000,20.38443505859375,-0.046268343925476074,0.19634714722633362,-0.1206045150756836
1697908590686405600,20.403405517578125,-0.019154787063598633,0.19155636429786682,-0.16936302185058594
1697908590705376500,20.42237646484375,-0.003443479537963867,0.19448640942573547,-0.20015335083007812
1697908590724347100,20.44134716796875,-0.06265485286712646,0.11597838997840881,-0.28866100311279297
1697908590743317800,20.46031787109375,-0.013321757316589355,0.09604796767234802,-0.49520397186279297
1697908590762288600,20.47928857421875,-0.09167301654815674,-0.14658454060554504,-0.6866302490234375
1697908590781259300,20.49825927734375,-0.19530820846557617,-0.3078715205192566,-0.8174190521240234
1697908590800230000,20.51722998046875,-0.23044419288635254,-0.3879454731941223,-0.8957500457763672
1697908590819200800,20.53620068359375,-0.2796905040740967,-0.544113278388977,-0.6525096893310547
1697908590838171400,20.55517138671875,-0.3913224935531616,-0.4904027283191681,0.1062173843383789
1697908590857142000,20.57414208984375,-0.3904699683189392,-0.37459856271743774,0.7562971115112305
1697908590876113000,20.59311279296875,-0.6805034875869751,-0.46995633840560913,0.942296028137207
1697908590895083500,20.61208349609375,-0.5876868367195129,-0.34334254264831543,0.8928508758544922
1697908590914054400,20.631054443359375,-0.4419105648994446,0.009705394506454468,0.5784807205200195
1697908590933025000,20.65002490234375,-0.5648007988929749,0.3019654452800751,0.6335773468017578
1697908590951995600,20.66899560546875,-0.6033440232276917,0.5204442739486694,0.47772884368896484
1697908590970966500,20.687966552734373,-0.5401710867881775,0.3832434117794037,0.16565704345703125
1697908590989937200,20.706937255859376,-0.41168564558029175,0.09342184662818909,-0.22823524475097656
1697908591008908000,20.725907958984376,-0.423822283744812,-0.06468397378921509,-0.41527366638183594
1697908591027878700,20.744878662109375,-0.506380558013916,-0.18920749425888062,-0.3997020721435547
1697908591046849300,20.763849365234375,-0.6030046939849854,-0.3552916347980499,-0.3844442367553711
1697908591065820200,20.782820068359374,-0.6192066669464111,-0.53293776512146,-0.2527122497558594
1697908591084790800,20.801790771484374,-0.47799620032310486,-0.5677839517593384,-0.11111640930175781
1697908591103761400,20.820761474609377,-0.4017193019390106,-0.3492436707019806,0.16098976135253906
1697908591122732300,20.839732177734376,-0.3609164357185364,-0.3556956648826599,0.1786479949951172
1697908591141703000,20.858702880859376,-0.44756361842155457,-0.45770329236984253,-0.3023061752319336
1697908591160673500,20.877673583984375,-0.6986302137374878,-0.429279625415802,-0.871281623840332
1697908591179644400,20.89664453125,-0.8371775150299072,-0.2897914946079254,-1.1699542999267578
1697908591198615000,20.915614990234374,-0.7205021381378174,-0.23979517817497253,-1.0089960098266602
1697908591217585700,20.934585693359374,-0.6679726243019104,-0.19292400777339935,-0.8388490676879883
1697908591236556500,20.953556640625,-0.7169495224952698,-0.20624792575836182,-0.7670612335205078
1697908591255527200,20.972527099609376,-0.8085821866989136,-0.3008562922477722,-0.8170309066772461
1697908591274498000,20.991498046875,-0.7427358031272888,-0.2943148612976074,-0.9977846145629883
1697908591293468700,21.01046875,-0.5471545457839966,-0.40758466720581055,-1.3965892791748047
1697908591312439300,21.029439208984375,-0.5396912693977356,-0.5883959531784058,-1.5663509368896484
1697908591331410200,21.04841015625,-0.6132254600524902,-0.7203693389892578,-1.6278505325317383
1697908591350380800,21.067380859375,-0.8814147710800171,-0.797028124332428,-1.7342324256896973
1697908591369351400,21.086351318359377,-1.3042516708374023,-0.8087572455406189,-1.6800470352172852
1697908591388322300,21.105322265625,-1.6494781970977783,-0.8292730450630188,-1.5470523834228516
1697908591407293000,21.12429296875,-1.4179284572601318,-0.9221187829971313,-1.5475435256958008
1697908591426263800,21.143263916015623,-1.1596479415893555,-0.8573963046073914,-1.702242374420166
1697908591445234400,21.162234375,-1.0784305334091187,-0.6083805561065674,-1.6435012817382812
1697908591464205000,21.181205078125,-1.217325210571289,-0.15485629439353943,-1.372396469116211
1697908591483176000,21.200176025390626,-0.6627835035324097,0.6490976810455322,-1.1533775329589844
1697908591502146600,21.219146484375,0.25133252143859863,0.6483423113822937,-1.1871156692504883
1697908591521117200,21.2381171875,-0.15742486715316772,-0.8464723229408264,-1.0134105682373047
1697908591540088000,21.257088134765624,-0.21031975746154785,-0.5137040615081787,-0.20922183990478516
1697908591559058700,21.27605859375,-0.27989935874938965,0.5124567151069641,0.2404346466064453
1697908591578029300,21.295029296875,0.5259125828742981,1.3073517084121704,0.08201789855957031
1697908591597000200,21.314000244140626,0.8739796876907349,1.3089278936386108,-0.5644798278808594
1697908591615970800,21.332970703125,0.8360217213630676,0.28072550892829895,-0.2402791976928711
1697908591634941400,21.35194140625,0.8723176717758179,-1.0593124628067017,0.407440185546875
1697908591653912300,21.370912353515624,0.6174460053443909,-1.712719440460205,0.562809944152832
1697908591672883000,21.389883056640624,0.8865385055541992,-0.8089188933372498,0.7426109313964844
1697908591691853800,21.408853759765623,1.41501784324646,0.2737506628036499,0.9201145172119141
1697908591710824400,21.427824462890626,2.1890711784362793,0.8520667552947998,0.6830539703369141
1697908591729795000,21.446795166015626,2.6519737243652344,0.8041223883628845,0.4029808044433594
1697908591748766000,21.465765869140625,2.407959461212158,0.6681258082389832,0.5956916809082031
1697908591767736600,21.484736572265625,2.0781443119049072,0.46487727761268616,0.7304420471191406
1697908591786707500,21.50370751953125,2.0587878227233887,0.5813103914260864,0.9329185485839844
1697908591805678000,21.522677978515624,2.2920751571655273,0.8038657903671265,0.8219985961914062
1697908591824648700,21.541648681640623,2.3473501205444336,0.8712971210479736,0.7349662780761719
1697908591843619600,21.56061962890625,1.6305612325668335,0.5651365518569946,0.8232498168945312
1697908591862590200,21.579590087890626,1.7614089250564575,0.20279496908187866,1.186849594116211
1697908591881560800,21.598560791015625,2.000058650970459,0.4022868275642395,1.4312143325805664
1697908591900531700,21.61753173828125,2.180819034576416,0.5518133044242859,1.4734973907470703
1697908591919502300,21.63650244140625,2.0412731170654297,0.20308685302734375,1.4735040664672852
1697908591938473000,21.655472900390624,1.9051282405853271,-0.002850145101547241,1.6040000915527344
1697908591957443800,21.67444384765625,1.9903620481491089,0.04213950037956238,1.3695182800292969
1697908591976414500,21.69341455078125,1.8422549962997437,0.08813232183456421,1.1638355255126953
1697908591995385000,21.712385009765626,1.5977187156677246,-0.2701042592525482,1.039566993713379
1697908592014356000,21.73135595703125,1.5836750268936157,0.048820286989212036,1.1834402084350586
1697908592033326600,21.75032666015625,1.7815710306167603,0.4252951145172119,0.8771982192993164
1697908592052297500,21.76929736328125,1.1945139169692993,0.37858182191848755,0.9375267028808594
1697908592071268000,21.78826806640625,0.4231966733932495,-0.04192221164703369,1.028367042541504
1697908592090238700,21.80723876953125,0.5174167156219482,-0.15134680271148682,0.7671794891357422
1697908592109209600,21.826209716796875,0.8464820384979248,0.039301514625549316,0.7194662094116211
1697908592128180200,21.84518017578125,1.1087913513183594,0.48627322912216187,0.5626296997070312
1697908592147150800,21.86415087890625,1.1576879024505615,0.6239317655563354,0.29810142517089844
1697908592166121700,21.883121826171877,1.035808801651001,0.49388402700424194,0.20080947875976562
1697908592185092400,21.90209228515625,0.5133180618286133,0.20209594070911407,0.23951148986816406
1697908592204063000,21.92106298828125,0.1483759880065918,-0.013751447200775146,0.4313802719116211
1697908592223033900,21.940033935546875,0.19192838668823242,0.24899813532829285,0.2795906066894531
1697908592242004500,21.95900439453125,0.39154624938964844,0.2918340861797333,-0.3222169876098633
1697908592260975000,21.97797509765625,0.3898799419403076,0.28365474939346313,-0.6299753189086914
1697908592279946000,21.996946044921874,0.39237403869628906,0.2350994050502777,-0.4822511672973633
1697908592298916600,22.01591650390625,0.4748044013977051,0.3617657423019409,-0.07643795013427734
1697908592317887200,22.03488720703125,0.6369860172271729,0.13301901519298553,-0.26825809478759766
1697908592336858000,22.053858154296876,0.040643930435180664,-0.30346542596817017,-0.4204587936401367
1697908592355828700,22.072828857421875,0.8838350772857666,-1.911585807800293,1.5732955932617188
1697908592374799400,22.09179931640625,1.2960073947906494,0.3235015869140625,3.359330177307129
1697908592393770200,22.110770263671874,1.983696699142456,0.991096019744873,1.7562246322631836
1697908592412740900,22.129740966796874,1.708918809890747,-0.17784550786018372,1.6943168640136719
1697908592431711700,22.148711669921877,1.4383869171142578,0.7315022945404053,1.1281538009643555
1697908592450682400,22.167682373046876,1.6354650259017944,0.9454379081726074,0.36791133880615234
1697908592469653000,22.186653076171876,1.9912917613983154,0.2524174749851227,0.24468708038330078
1697908592488623900,22.205623779296875,2.212887763977051,-0.19989845156669617,1.1932077407836914
1697908592507594500,22.224594482421875,1.9381295442581177,-0.25404709577560425,2.5682191848754883
1697908592526565000,22.243565185546874,2.229356527328491,-0.3427121639251709,2.6708803176879883
1697908592545536000,22.262535888671874,2.616151809692383,0.045686423778533936,2.532564163208008
1697908592564506600,22.281506591796877,2.180535316467285,0.13473515212535858,2.0497798919677734
1697908592583477500,22.3004775390625,1.6331735849380493,-0.278226763010025,1.5957422256469727
1697908592602448100,22.3194482421875,1.9934453964233398,0.10014769434928894,1.3017959594726562
1697908592621418800,22.338418701171875,2.1221914291381836,0.7670423984527588,1.2988824844360352
1697908592640389600,22.3573896484375,1.8963897228240967,0.5717283487319946,1.2495155334472656
1697908592659360300,22.3763603515625,2.0336098670959473,0.13269270956516266,1.1518898010253906
1697908592678331000,22.395330810546874,2.1039462089538574,-0.0794716477394104,0.9311962127685547
1697908592697301800,22.4143017578125,1.9959970712661743,0.06997884809970856,0.6165304183959961
1697908592716272400,22.4332724609375,2.109762191772461,0.32212769985198975,0.27722644805908203
1697908592735243000,22.452242919921876,1.8644757270812988,0.4333099126815796,0.29794979095458984
1697908592754214000,22.4712138671875,1.7481358051300049,0.3873463273048401,0.3101482391357422
1697908592773184500,22.4901845703125,1.7381319999694824,0.009067744016647339,0.07564163208007812
1697908592792155400,22.5091552734375,1.8740651607513428,-0.2755192518234253,-0.18008041381835938
1697908592811126000,22.5281259765625,1.9299354553222656,-0.25260257720947266,-0.48324012756347656
1697908592830096600,22.5470966796875,1.826721429824829,0.015883609652519226,-0.6380853652954102
1697908592849067500,22.566067626953124,1.5544445514678955,0.09871098399162292,-0.565333366394043
1697908592868038100,22.5850380859375,1.363612413406372,0.10601955652236938,-0.34272193908691406
1697908592887009000,22.604009033203123,1.186441421508789,0.08477883040904999,-0.07620525360107422
1697908592905979600,22.622979736328126,0.9865981936454773,0.39195555448532104,0.2506837844848633
1697908592924950300,22.6419501953125,0.7892645597457886,0.5602213144302368,0.2547111511230469
1697908592943921200,22.660921142578125,0.5787561535835266,0.3025316596031189,0.00921630859375
1697908592962891800,22.679891845703125,-0.2894524931907654,-0.037979856133461,-0.08877849578857422
1697908592981862400,22.6988623046875,-1.3025026321411133,-0.21381397545337677,-0.4735260009765625
1697908593000833300,22.717833251953124,-2.216799259185791,-0.6744475364685059,-1.2626819610595703
1697908593019804000,22.736803955078123,-2.251983880996704,-1.3099702596664429,-2.115323543548584
1697908593038774500,22.7557744140625,-2.338999032974243,-1.1931880712509155,-2.771819591522217
1697908593057745400,22.774745361328126,-2.7021324634552,-0.7318177223205566,-3.07969331741333
1697908593076716000,22.793716064453125,-2.839677095413208,-0.7734116911888123,-3.195789337158203
1697908593095686700,22.812686767578125,-2.4552953243255615,-1.5232913494110107,-3.2613911628723145
1697908593114657500,22.831657470703124,-2.034968852996826,-2.1708450317382812,-2.6665568351745605
1697908593133628200,22.850628173828124,-1.7794511318206787,-1.992295503616333,-1.5255117416381836
1697908593152599000,22.86959912109375,-1.7496250867843628,-1.1437479257583618,-0.3743019104003906
1697908593171569700,22.888569580078126,-1.5451290607452393,-0.11702406406402588,0.32314205169677734
1697908593190540300,22.907540283203126,-1.2709128856658936,0.690497636795044,0.38271427154541016
1697908593209511200,22.92651123046875,-0.8934491872787476,1.0064748525619507,-0.1740264892578125
1697908593228481800,22.945481689453125,-0.522663414478302,0.7181031703948975,-1.3915348052978516
1697908593247452700,22.96445263671875,-0.48028212785720825,0.6595293879508972,-2.239363670349121
1697908593266423300,22.98342333984375,-0.7921997308731079,0.7741239070892334,-2.753572940826416
1697908593285394000,23.002393798828123,-1.1754555702209473,0.47786054015159607,-2.890866756439209
1697908593304364800,23.02136474609375,-1.5208321809768677,-0.14206862449645996,-2.480764865875244
1697908593323335400,23.04033544921875,-1.5397260189056396,-0.640192985534668,-2.0094118118286133
1697908593342306000,23.05930615234375,-1.274559497833252,-0.6162368059158325,-1.7002782821655273
1697908593361277000,23.07827685546875,-1.0283857583999634,-0.20502334833145142,-1.6259527206420898
1697908593380247600,23.09724755859375,-1.1210014820098877,-0.12988048791885376,-1.4474267959594727
1697908593399218200,23.11621826171875,-1.1553726196289062,-0.32098737359046936,-0.9313497543334961
1697908593418189000,23.13518896484375,-1.0312567949295044,-0.4442788064479828,-0.28697681427001953
1697908593437159700,23.15415966796875,-0.8754753470420837,-0.4789641201496124,0.7202844619750977
1697908593456130600,23.173130615234374,-0.6341427564620972,-0.5862864255905151,1.6405534744262695
1697908593475101200,23.19210107421875,-0.23089540004730225,-0.5482916235923767,1.7517261505126953
1697908593494071800,23.21107177734375,-0.10687220096588135,-0.1337389349937439,1.2836837768554688
1697908593513042700,23.230042724609376,-0.12969136238098145,0.22631530463695526,0.5147371292114258
1697908593532013300,23.249013427734376,-0.11799097061157227,0.1901107132434845,-0.3309192657470703
1697908593550984200,23.267984130859375,-0.2987583875656128,-0.07209718227386475,-0.41799068450927734
1697908593569954800,23.286954833984375,-0.7692579030990601,-0.3244469463825226,0.5014400482177734
1697908593588925400,23.305925537109374,-0.9239177107810974,-0.4360716938972473,1.1283512115478516
1697908593607896300,23.324896240234374,-0.4732229709625244,-0.36566948890686035,0.5098543167114258
1697908593626867000,23.343866943359377,-0.14689183235168457,-0.08416983485221863,-0.3899412155151367
1697908593645837600,23.362837646484376,0.02889883518218994,0.5099485516548157,-0.9491252899169922
1697908593664808400,23.381808349609376,0.017365694046020508,0.9761866927146912,-0.9829044342041016
1697908593683779000,23.400779052734375,-0.1950448751449585,0.6770873069763184,-0.5822391510009766
1697908593702749700,23.419749755859375,-0.20209038257598877,0.323091059923172,-0.018602371215820312
1697908593721720600,23.438720458984374,-0.34345924854278564,0.1233719065785408,0.28713512420654297
1697908593740691200,23.457691162109374,-0.5728762149810791,0.07240166515111923,0.6081914901733398
1697908593759661800,23.476661865234377,-0.8150928020477295,0.14764510095119476,0.6930866241455078
1697908593778632700,23.4956328125,-0.9621501564979553,-0.030525922775268555,0.46503734588623047
