time,seconds_elapsed,z,y,x
1697910552273722400,0.126722412109375,0.2987947463989258,-0.050724029541015625,0.9075303077697754
1697910552292690000,0.14568994140625,-0.10252761840820312,0.20792129635810852,0.24463272094726562
1697910552311657700,0.16465771484375,-0.5745115280151367,0.06310296058654785,-0.18374228477478027
1697910552330625300,0.183625244140625,1.2516860961914062,0.10836119949817657,0.16833281517028809
1697910552349593000,0.202593017578125,-0.10535907745361328,0.1133597195148468,0.05434608459472656
1697910552368560600,0.221560546875,-0.3375358581542969,0.08018739521503448,0.003966093063354492
1697910552387528400,0.240528564453125,-0.10631370544433594,0.1403527855873108,-0.002084016799926758
1697910552406496000,0.25949609375,-0.08521366119384766,-0.08063356578350067,0.12647461891174316
1697910552425463600,0.278463623046875,-0.1998910903930664,-0.12507390975952148,0.0576021671295166
1697910552444431400,0.297431396484375,-0.11681652069091797,0.045198649168014526,0.13955163955688477
1697910552463399000,0.31639892578125,-0.07461071014404297,0.0542813241481781,0.06505990028381348
1697910552482366700,0.33536669921875,-0.04299640655517578,0.024059191346168518,-0.0183563232421875
1697910552501334300,0.354334228515625,0.030704498291015625,0.0024676918983459473,-0.02176189422607422
1697910552520302000,0.373302001953125,0.02541828155517578,0.018164336681365967,-0.0294644832611084
1697910552539269600,0.39226953125,-0.13693523406982422,0.060445986688137054,-0.029611825942993164
1697910552558237400,0.411237548828125,-0.23852062225341797,-0.05762164294719696,0.12635302543640137
1697910552577205000,0.430205078125,-0.1399059295654297,-0.06285041570663452,0.14201760292053223
1697910552596172800,0.4491728515625,0.10479068756103516,-0.033535026013851166,-0.04540538787841797
1697910552615140400,0.468140380859375,0.2344837188720703,-0.0840182974934578,-0.1768937110900879
1697910552634108200,0.487108154296875,0.1507863998413086,-0.3121725916862488,-0.4403529167175293
1697910552653075700,0.50607568359375,-0.08625984191894531,-0.18722015619277954,-0.30710887908935547
1697910552672043500,0.52504345703125,-0.228485107421875,0.11611925810575485,-0.1140904426574707
1697910552691011000,0.544010986328125,-0.11454296112060547,0.1987738162279129,-0.06470394134521484
1697910552709979000,0.562978759765625,-0.1484508514404297,0.07002053409814835,0.16602706909179688
1697910552728946400,0.581946533203125,0.14291000366210938,0.046280503273010254,0.021206378936767578
1697910552747914200,0.600914306640625,-0.26524925231933594,-0.07127121835947037,-0.3936338424682617
1697910552766881800,0.6198818359375,-0.3271799087524414,-0.1837078481912613,-0.2576766014099121
1697910552785849600,0.638849609375,0.0280609130859375,-0.2578492760658264,-0.590451717376709
1697910552804817200,0.657817138671875,-0.061394691467285156,-0.08381154388189316,-0.09489107131958008
1697910552823785000,0.676784912109375,-0.41411590576171875,0.2011304795742035,0.35228490829467773
1697910552842752500,0.69575244140625,-0.17934417724609375,0.07910672575235367,0.2607765197753906
1697910552861720000,0.714719970703125,0.25461292266845703,0.08662031590938568,0.17539691925048828
1697910552880687900,0.73368798828125,0.22353649139404297,-0.09453500807285309,0.3921523094177246
1697910552899655400,0.752655517578125,0.007927894592285156,-0.24912628531455994,0.27460432052612305
1697910552918623200,0.771623291015625,-0.5626335144042969,-0.1444844901561737,0.7363719940185547
1697910552937590800,0.7905908203125,-0.632850170135498,-0.1483362913131714,0.5404496192932129
1697910552956558600,0.80955859375,-0.5059108734130859,0.09108921885490417,0.513242244720459
1697910552975526400,0.8285263671875,-0.5261154174804688,0.07903671264648438,0.41840553283691406
1697910552994494000,0.847493896484375,-0.5200624465942383,-0.11164440214633942,0.20555734634399414
1697910553013461800,0.866461669921875,-0.01813983917236328,-0.2544865906238556,-0.06825017929077148
1697910553032429300,0.88542919921875,-0.2482738494873047,-0.05533113703131676,-0.13401556015014648
1697910553051397000,0.904397216796875,-0.7208027839660645,0.14781591296195984,0.06962728500366211
1697910553070364700,0.92336474609375,0.3671255111694336,-0.00558069720864296,-0.1529231071472168
1697910553089332500,0.94233251953125,0.004093170166015625,0.2270888090133667,0.29709959030151367
1697910553108300000,0.961300048828125,-0.20563983917236328,-0.0012636743485927582,-0.15632247924804688
1697910553127267800,0.980267822265625,0.3049049377441406,-0.10541076958179474,-0.28546714782714844
1697910553146235400,0.9992353515625,0.4485454559326172,-0.07512940466403961,-0.07031822204589844
1697910553165203200,1.018203125,0.21581172943115234,-0.02246856689453125,0.19857549667358398
1697910553184170800,1.037170654296875,0.06524181365966797,-0.010600641369819641,0.37331199645996094
1697910553203138600,1.056138671875,-0.21551132202148438,-0.18039071559906006,0.06628084182739258
1697910553222106000,1.075106201171875,-0.1591930389404297,-0.22983503341674805,0.026468276977539062
1697910553241074000,1.094073974609375,-0.03441905975341797,-0.19629958271980286,0.2318415641784668
1697910553260041500,1.11304150390625,0.1838827133178711,-0.14974258840084076,0.1829209327697754
1697910553279009300,1.13200927734375,-0.19180870056152344,-0.18363884091377258,-0.03201484680175781
1697910553297976800,1.150976806640625,-0.12873268127441406,0.018766209483146667,0.05515575408935547
1697910553316944600,1.169944580078125,0.1749401092529297,0.01063816249370575,-0.04177284240722656
1697910553335912200,1.188912109375,0.09744071960449219,-0.06992454081773758,-0.16229867935180664
1697910553354880000,1.2078798828125,-0.004895210266113281,0.02233220636844635,-0.1405949592590332
1697910553373847800,1.226847900390625,-0.1540212631225586,0.24127060174942017,0.3100275993347168
1697910553392815400,1.2458154296875,-0.04154491424560547,0.03514678031206131,0.07595491409301758
1697910553411783200,1.264783203125,-0.11553668975830078,-0.04065778851509094,-0.07368040084838867
1697910553430750700,1.283750732421875,0.02312183380126953,-0.06610184907913208,-0.19341516494750977
1697910553449718500,1.302718505859375,0.029840469360351562,0.09039104729890823,0.01910686492919922
1697910553468686000,1.32168603515625,0.15190601348876953,0.0358036607503891,0.11641120910644531
1697910553487654000,1.34065380859375,0.13241004943847656,-0.02268422394990921,0.10276556015014648
1697910553506621400,1.359621337890625,-0.017721176147460938,0.05413904786109924,0.16246318817138672
1697910553525589200,1.37858935546875,-0.19429397583007812,0.04196671396493912,0.03696012496948242
1697910553544556800,1.397556884765625,-0.011670112609863281,0.043199121952056885,-0.13173770904541016
1697910553563524600,1.416524658203125,0.007002830505371094,0.019780077040195465,-0.11644697189331055
1697910553582492200,1.4354921875,0.043018341064453125,0.02676352858543396,-0.11028385162353516
1697910553601460000,1.4544599609375,-0.0828084945678711,0.10926570743322372,0.10784912109375
1697910553620427500,1.473427490234375,-0.12697219848632812,0.08788548409938812,0.15163230895996094
1697910553639395300,1.492395263671875,0.09930038452148438,-0.0848943218588829,0.08127975463867188
1697910553658363100,1.511363037109375,0.03808784484863281,-0.09944187104701996,0.03896903991699219
1697910553677330700,1.53033056640625,0.09668540954589844,0.033905819058418274,-0.0023369789123535156
1697910553696298500,1.549298583984375,-0.0782623291015625,0.10741803795099258,-0.1150655746459961
1697910553715266000,1.56826611328125,-0.03954792022705078,0.11214988678693771,-0.0600895881652832
1697910553734233900,1.58723388671875,0.0959329605102539,-0.016265347599983215,-0.06339168548583984
1697910553753201400,1.606201416015625,-0.05878162384033203,-0.033946067094802856,0.07037687301635742
1697910553772169200,1.625169189453125,-0.04487037658691406,-0.0792505294084549,0.040276527404785156
1697910553791137000,1.644136962890625,-0.0072803497314453125,-0.030316613614559174,-0.007956504821777344
1697910553810104600,1.6631044921875,-0.052170753479003906,-0.02126864343881607,0.048096656799316406
1697910553829072400,1.682072265625,-0.06693840026855469,0.05890858173370361,0.08731794357299805
1697910553848040000,1.7010400390625,-0.010255813598632812,0.10039030015468597,0.08405852317810059
1697910553867007700,1.7200078125,0.038906097412109375,0.03192579373717308,-0.0021164417266845703
1697910553885975300,1.738975341796875,0.0023784637451171875,0.0423104427754879,-0.030345916748046875
1697910553904943000,1.757943115234375,0.0911102294921875,-0.019771374762058258,-0.09835577011108398
1697910553923910700,1.77691064453125,0.1276569366455078,-0.0320017971098423,-0.07015609741210938
1697910553942878500,1.79587841796875,-0.04459381103515625,-0.02848019264638424,-0.12748169898986816
1697910553961846000,1.814845947265625,-0.053165435791015625,-0.00778946653008461,-0.06600522994995117
1697910553980813800,1.833813720703125,-0.07725334167480469,0.05624677985906601,0.07322001457214355
1697910553999781400,1.852781494140625,-0.042944908142089844,-0.04848118871450424,-0.07860112190246582
1697910554018749200,1.871749267578125,0.07175350189208984,-0.042411454021930695,-0.08759665489196777
1697910554037717000,1.890717041015625,0.037293434143066406,0.03896952420473099,-0.033521175384521484
1697910554056684500,1.9096845703125,0.04970741271972656,0.009690003469586372,0.06451916694641113
1697910554075652400,1.92865234375,-0.005045890808105469,-0.015269454568624496,0.07192707061767578
1697910554094620000,1.947619873046875,-0.07706260681152344,0.024699196219444275,0.14933013916015625
1697910554113587700,1.966587646484375,-0.07067394256591797,-0.0446094386279583,-0.12133431434631348
1697910554132555300,1.98555517578125,-0.09006309509277344,0.05589591711759567,-0.09781551361083984
1697910554151523000,2.004523193359375,0.10011005401611328,-0.0024738688953220844,0.03269076347351074
1697910554170491000,2.023490966796875,0.04893684387207031,-0.08361133933067322,0.06755924224853516
1697910554189458400,2.04245849609375,0.06792640686035156,-0.10214104503393173,-0.08495569229125977
1697910554208426200,2.06142626953125,0.2067861557006836,-0.02265222929418087,-0.03603553771972656
1697910554227393800,2.080393798828125,0.08945560455322266,-0.05484970659017563,0.09238791465759277
1697910554246361600,2.099361572265625,0.05045127868652344,-0.03748314455151558,0.0864105224609375
1697910554265329200,2.1183291015625,-0.02785491943359375,0.024481836706399918,0.14705896377563477
1697910554284297000,2.137296875,0.05107402801513672,-0.01594577729701996,-0.12212443351745605
1697910554303264500,2.156264404296875,-0.008687019348144531,0.025542836636304855,-0.17776155471801758
1697910554322232300,2.175232421875,0.06897926330566406,-0.06080775335431099,-0.11360001564025879
1697910554341200000,2.194199951171875,-0.023962974548339844,-0.03945869952440262,-0.07018637657165527
1697910554360167700,2.213167724609375,0.029239654541015625,-0.003203457221388817,-0.1576700210571289
1697910554379135500,2.232135498046875,0.2623128890991211,0.43762093782424927,0.0072972774505615234
1697910554398103000,2.25110302734375,0.522435188293457,0.23209671676158905,-0.3582499027252197
1697910554417070800,2.27007080078125,1.1213274002075195,0.22635364532470703,-0.9001119136810303
1697910554436038400,2.289038330078125,1.1988611221313477,0.02774512767791748,-0.7863373756408691
1697910554455006200,2.308006103515625,0.8043727874755859,-0.0719791054725647,-0.2453298568725586
1697910554473973800,2.326973876953125,0.36676883697509766,-0.3204888105392456,-0.05582237243652344
1697910554492941600,2.345941650390625,0.5045404434204102,-0.07449818402528763,0.15302181243896484
1697910554511909000,2.3649091796875,0.2194671630859375,-0.13885770738124847,0.08204221725463867
1697910554530877000,2.383876953125,-0.8242025375366211,-0.3713468313217163,-0.3577613830566406
1697910554549844700,2.4028447265625,-0.7774052619934082,-0.0805966854095459,-0.1955866813659668
1697910554568812300,2.421812255859375,0.2558479309082031,-0.0334240198135376,-0.5914702415466309
1697910554587780000,2.440780029296875,-0.12696170806884766,0.0763489305973053,-0.4131135940551758
1697910554606747600,2.45974755859375,-0.1500387191772461,-0.01518961787223816,-0.06661224365234375
1697910554625715500,2.478715576171875,0.3213191032409668,-0.5467097163200378,-1.4811444282531738
1697910554644683300,2.497683349609375,-0.7582645416259766,-0.06422823667526245,-0.07900428771972656
1697910554663650800,2.51665087890625,0.21054935455322266,-0.4302501976490021,-1.1950068473815918
1697910554682618600,2.53561865234375,0.1701221466064453,0.4180416464805603,-0.3310222625732422
1697910554701586200,2.554586181640625,-0.3018531799316406,-0.15430587530136108,-1.2079997062683105
1697910554720554000,2.573553955078125,-0.5492868423461914,0.769884467124939,0.9166889190673828
1697910554739521500,2.592521484375,-0.4442136287689209,0.6020533442497253,-0.002422332763671875
1697910554758489300,2.6114892578125,0.2846336364746094,-0.5060327649116516,0.7903909683227539
1697910554777457000,2.630456787109375,0.7724499702453613,-1.0668230056762695,-3.5329647064208984
1697910554796424700,2.6494248046875,-1.5315027236938477,-0.060330986976623535,0.6325616836547852
1697910554815392500,2.668392578125,-0.9669532775878906,-0.46510744094848633,-0.833888053894043
1697910554834360000,2.687360107421875,-0.5459686517715454,-0.6201580166816711,-0.34459877014160156
1697910554853328000,2.706327880859375,0.1436976194381714,0.5999534726142883,1.6725549697875977
1697910554872295400,2.72529541015625,0.3298330307006836,0.2721553444862366,0.44904232025146484
1697910554891263200,2.74426318359375,-0.1480005979537964,0.044983625411987305,0.08257293701171875
1697910554910230800,2.763230712890625,-0.40589576959609985,-0.231234610080719,-0.7319841384887695
1697910554929198600,2.782198486328125,-0.5199644565582275,-0.029873132705688477,0.3682107925415039
1697910554948166400,2.80116650390625,-0.19109952449798584,0.1912705898284912,-0.3938922882080078
1697910554967134000,2.820134033203125,0.0527569055557251,-0.09329116344451904,-0.9106044769287109
1697910554986101800,2.839101806640625,-0.8410747051239014,-0.3174703121185303,-0.716639518737793
1697910555005069300,2.8580693359375,-0.5261314511299133,-0.08939623832702637,0.10667896270751953
1697910555024037000,2.877037109375,0.09515494108200073,-0.4414452314376831,0.6191310882568359
1697910555043005000,2.8960048828125,-0.07108354568481445,-0.34849703311920166,-0.8728828430175781
1697910555061972500,2.914972412109375,-0.12849527597427368,-0.449735164642334,0.7152252197265625
1697910555080940300,2.933940185546875,-0.5987181663513184,-0.017775416374206543,-0.6858768463134766
1697910555099907800,2.952907958984375,-0.35354045033454895,0.7548609972000122,-0.937657356262207
1697910555118875600,2.971875732421875,-0.12147074937820435,0.03529787063598633,0.4972820281982422
1697910555137843200,2.99084326171875,-0.49208125472068787,-0.21298491954803467,0.37763309478759766
1697910555156811000,3.00981103515625,-0.6165639162063599,0.1052091121673584,0.26666927337646484
1697910555175778600,3.028778564453125,0.3017210364341736,-0.6929344534873962,1.0075206756591797
1697910555194746400,3.047746337890625,0.2633785605430603,-0.25749874114990234,0.9585113525390625
1697910555213714200,3.066714111328125,-0.09494054317474365,-0.8884032964706421,-0.40842723846435547
1697910555232681700,3.085681640625,-0.9062662720680237,-0.8518716096878052,-1.6258811950683594
1697910555251649500,3.1046494140625,-0.7258633375167847,0.3499462604522705,-0.44872188568115234
1697910555270617000,3.1236171875,0.2475823163986206,0.32718604803085327,0.1205892562866211
1697910555289585000,3.1425849609375,0.8654849529266357,0.06853252649307251,0.6192207336425781
1697910555308552700,3.161552734375,-1.3859179019927979,-0.439755916595459,-1.0259265899658203
1697910555327520300,3.180520263671875,0.7445489168167114,0.8542917966842651,1.753896713256836
1697910555346488000,3.199488037109375,0.5664060711860657,0.31639695167541504,1.0828781127929688
1697910555365455600,3.21845556640625,0.08326169848442078,-0.37638312578201294,-0.4016427993774414
1697910555384423400,3.23742333984375,-0.8241024613380432,-1.151594638824463,-1.1634550094604492
1697910555403391000,3.256390869140625,-0.9757391214370728,-0.593091607093811,-1.235701560974121
1697910555422358800,3.27535888671875,-1.040869951248169,-0.6684136390686035,-1.3938007354736328
1697910555441326300,3.294326416015625,-0.0037566721439361572,1.3661224842071533,0.6383514404296875
1697910555460294100,3.313294189453125,0.8050624132156372,0.8775245547294617,1.1837244033813477
1697910555479262000,3.332261962890625,-0.06125110387802124,-0.4020870327949524,-0.09328556060791016
1697910555498229500,3.3512294921875,-0.5657727718353271,-0.3944370150566101,-0.5976839065551758
1697910555517197300,3.370197265625,-0.5868061184883118,0.1927173137664795,0.31830883026123047
1697910555536164900,3.389164794921875,0.4287841022014618,0.23825359344482422,0.20522403717041016
1697910555555132700,3.408132568359375,1.1399320363998413,-0.5369959473609924,-0.0855245590209961
1697910555574100200,3.427100341796875,-0.05777782201766968,-0.5209392309188843,-0.7419185638427734
1697910555593068000,3.446068115234375,-1.0080902576446533,-0.6852656602859497,-1.934962272644043
1697910555612035800,3.465035888671875,-1.1001042127609253,-0.2620169520378113,-2.1078829765319824
1697910555631003400,3.48400341796875,-0.589031457901001,0.24303793907165527,-1.506368637084961
1697910555649971200,3.50297119140625,0.14511406421661377,0.8437245488166809,-0.581425666809082
1697910555668938800,3.521938720703125,-0.8854119777679443,0.47528040409088135,-0.4991292953491211
1697910555687906600,3.540906494140625,-0.20726871490478516,1.3998878002166748,1.2898216247558594
1697910555706874400,3.559874267578125,0.9930657148361206,-0.4775999188423157,0.034972190856933594
1697910555725842000,3.578842041015625,0.8486834764480591,-0.3119429349899292,0.333251953125
1697910555744809700,3.597809814453125,-0.637999415397644,-0.35665854811668396,3.947495460510254
1697910555763777300,3.61677734375,-0.49075520038604736,-0.4629960060119629,2.4758405685424805
1697910555782745000,3.6357451171875,0.03205406665802002,-0.4627789258956909,1.0819768905639648
1697910555801713000,3.654712890625,3.508660316467285,0.6086164116859436,-0.4071826934814453
1697910555820680400,3.673680419921875,-1.907116174697876,0.9749865531921387,-1.3067560195922852
1697910555839648300,3.692648193359375,-1.2227662801742554,2.4109764099121094,-0.8997249603271484
1697910555858615800,3.71161572265625,-1.100117564201355,-1.2138142585754395,-0.44463348388671875
1697910555877583600,3.73058349609375,-0.2757023572921753,0.6674258708953857,-0.5085849761962891
1697910555896551200,3.74955126953125,0.9992751479148865,0.27331680059432983,0.09714031219482422
1697910555915519000,3.76851904296875,-3.6370275020599365,-0.46947067975997925,-0.4082651138305664
1697910555934486800,3.78748681640625,-1.4262609481811523,0.21819140017032623,-0.5470733642578125
1697910555953454300,3.806454345703125,0.5121928453445435,0.17398963868618011,1.4632482528686523
1697910555972422100,3.825422119140625,0.8378275632858276,-0.3392724096775055,0.23990726470947266
1697910555991389700,3.8443896484375,-0.0638127326965332,-0.24495916068553925,-0.19793415069580078
1697910556010357500,3.863357421875,-0.2768350839614868,-0.09153362363576889,0.5850276947021484
1697910556029325000,3.882324951171875,-0.5730029344558716,-0.03270724043250084,-0.3994789123535156
1697910556048292900,3.90129296875,-0.9414374828338623,-0.0775807648897171,0.16325855255126953
1697910556067260700,3.9202607421875,-1.067487359046936,-0.267477810382843,1.2824935913085938
1697910556086228200,3.939228271484375,0.1529524326324463,0.13964420557022095,-1.6191167831420898
1697910556105196000,3.958196044921875,0.23480623960494995,-0.4111669063568115,-0.19402027130126953
1697910556124163800,3.977163818359375,0.2993040680885315,-0.2789957821369171,1.0515966415405273
1697910556143131400,3.99613134765625,1.1348308324813843,0.7960031032562256,0.09221935272216797
1697910556162099200,4.01509912109375,1.7073373794555664,-1.5860542058944702,2.7224864959716797
1697910556181066800,4.034066650390625,-1.5444873571395874,0.7139715552330017,-1.6709041595458984
1697910556200034600,4.05303466796875,-0.226629376411438,-0.020568817853927612,-0.49904632568359375
1697910556219002000,4.072002197265625,0.3021507263183594,0.17572104930877686,1.5391664505004883
1697910556237970000,4.090969970703125,-1.0214157104492188,1.050896406173706,0.5893983840942383
1697910556256937700,4.109937744140625,-0.10165178775787354,0.0005741864442825317,1.2672119140625
1697910556275905300,4.1289052734375,-1.2260740995407104,0.34460949897766113,1.8181467056274414
1697910556294873000,4.147873046875,0.6288465857505798,0.07289783656597137,0.7585601806640625
1697910556313840600,4.166840576171875,-0.5823749303817749,-0.47323906421661377,0.4991874694824219
1697910556332808400,4.185808349609375,-0.8647289276123047,0.21593217551708221,0.9409694671630859
1697910556351776000,4.20477587890625,-1.1306567192077637,-0.021720007061958313,0.4186420440673828
1697910556370743800,4.223743896484375,-0.15079891681671143,-0.005795538425445557,-1.3425626754760742
1697910556389711600,4.242711669921875,-0.30650365352630615,0.08294925093650818,-2.140087127685547
1697910556408679200,4.26167919921875,-0.46752941608428955,-0.051781415939331055,-2.301547050476074
1697910556427647000,4.28064697265625,0.06874513626098633,-0.11307883262634277,-3.207383632659912
1697910556446614800,4.29961474609375,-0.2234971523284912,0.2826313376426697,-3.0006890296936035
1697910556465582300,4.318582275390625,-0.9223487377166748,-0.23948884010314941,-2.1797003746032715
1697910556484550100,4.337550048828125,-0.22664248943328857,-0.11793699860572815,-1.407155990600586
1697910556503517700,4.356517578125,0.29616403579711914,0.019197925925254822,-1.0499181747436523
1697910556522485500,4.375485595703125,0.20269405841827393,0.1659562885761261,-0.413543701171875
1697910556541453000,4.394453125,-0.30188441276550293,0.14744172990322113,0.5144071578979492
1697910556560420900,4.4134208984375,-0.43823421001434326,0.020779579877853394,1.543156623840332
1697910556579388700,4.432388671875,-0.641274094581604,0.028986424207687378,2.406619071960449
1697910556598356200,4.451356201171875,-0.6635494232177734,0.16139337420463562,3.054119110107422
1697910556617324000,4.470323974609375,-0.9180083274841309,-0.08223134279251099,4.892571449279785
1697910556636291600,4.48929150390625,0.20080339908599854,-0.6496747732162476,3.609269142150879
1697910556655259400,4.50825927734375,1.4529166221618652,-0.33356189727783203,2.862542152404785
1697910556674227200,4.527227294921875,0.9839786291122437,-0.6650194525718689,-1.2058181762695312
1697910556693194800,4.54619482421875,1.4222102165222168,0.1649044156074524,-2.3097681999206543
1697910556712162600,4.56516259765625,2.301295757293701,-0.05531519651412964,-2.9315738677978516
1697910556731130000,4.584130126953125,-0.1027379035949707,0.42607980966567993,-3.072993278503418
1697910556750098000,4.603097900390625,0.05663490295410156,-0.08948451280593872,-1.9877886772155762
1697910556769065700,4.622065673828125,-0.1495342254638672,-0.03502631187438965,-1.7605705261230469
1697910556788033300,4.641033203125,-0.3789362907409668,-0.014660418033599854,-2.176095485687256
1697910556807001000,4.6600009765625,0.05949902534484863,-0.22695624828338623,-1.8400659561157227
1697910556825969000,4.678968994140625,-0.012439608573913574,-0.08324629068374634,-1.304513931274414
1697910556844936400,4.6979365234375,-0.35046470165252686,0.11750245094299316,-0.7510614395141602
1697910556863904300,4.716904296875,-0.2649155855178833,0.32942527532577515,-0.5280141830444336
1697910556882871800,4.735871826171875,-0.12088382244110107,0.2863437533378601,-0.4562110900878906
1697910556901839600,4.754839599609375,-0.7201485633850098,0.04337373375892639,-0.075927734375
1697910556920807400,4.773807373046875,-0.6768523454666138,0.15308678150177002,1.215611457824707
1697910556939775000,4.79277490234375,0.29847073554992676,-1.0929750204086304,0.9259300231933594
1697910556958742800,4.81174267578125,-1.948318362236023,-0.22691065073013306,1.5039606094360352
1697910556977710300,4.83071044921875,0.9413106441497803,-0.1594267189502716,0.10425567626953125
1697910556996678100,4.84967822265625,-1.3814915418624878,0.0816711038351059,0.6266269683837891
1697910557015646000,4.86864599609375,-0.23367011547088623,-0.43079638481140137,0.7745113372802734
1697910557034613500,4.887613525390625,-0.6087793111801147,0.20589590072631836,1.5590438842773438
1697910557053581300,4.906581298828125,-0.7734239101409912,-1.1375808715820312,0.7449474334716797
1697910557072548900,4.925548828125,-0.8357961177825928,-0.3498363494873047,-0.2925081253051758
1697910557091516700,4.9445166015625,-0.6556971073150635,0.4684913158416748,-0.5787353515625
1697910557110484500,4.963484375,-0.609365701675415,0.9133445024490356,-0.41329479217529297
1697910557129452000,4.9824521484375,0.19752824306488037,-0.14441317319869995,-0.20030784606933594
1697910557148419800,5.001419921875,0.6845003366470337,0.7447155714035034,0.21388912200927734
1697910557167387400,5.020387451171875,0.7855536937713623,1.5013588666915894,0.3546905517578125
1697910557186355200,5.039355224609375,0.26029467582702637,0.6934412717819214,-0.050872802734375
1697910557205323000,5.058322998046875,0.6888418197631836,0.5385664105415344,-0.1036529541015625
1697910557224290600,5.07729052734375,0.18555045127868652,0.7312688827514648,-0.2608757019042969
1697910557243258400,5.09625830078125,-0.5587962865829468,0.8061174154281616,-0.3104581832885742
1697910557262226200,5.11522607421875,-0.5955265760421753,0.49598491191864014,-0.7490253448486328
1697910557281193700,5.13419384765625,-0.5409011840820312,-0.20325686037540436,-0.3704566955566406
1697910557300161500,5.15316162109375,-0.14051783084869385,0.4354338049888611,-0.0047855377197265625
1697910557319129000,5.172129150390625,-0.0641406774520874,-0.8333922624588013,-0.8685121536254883
1697910557338097000,5.191096923828125,-0.5613143444061279,-0.7912936806678772,-0.39226627349853516
1697910557357064700,5.210064697265625,-0.5810128450393677,-0.835228443145752,-0.17484092712402344
1697910557376032300,5.2290322265625,-0.32124948501586914,-0.5490778088569641,1.549729347229004
1697910557395000000,5.248,-0.09527182579040527,-0.00019988417625427246,0.6163396835327148
1697910557413967600,5.266967529296875,-0.022554755210876465,0.5534970760345459,-0.001972198486328125
1697910557432935400,5.285935302734375,-0.07551777362823486,0.8323125839233398,0.03665637969970703
1697910557451903200,5.3049033203125,0.7335026264190674,-0.030453234910964966,0.5996866226196289
1697910557470870800,5.323870849609375,0.2687489986419678,-0.1202554702758789,0.6330881118774414
1697910557489838600,5.342838623046875,-0.17112231254577637,-0.2659337520599365,0.33040523529052734
1697910557508806400,5.361806396484375,-0.3880031108856201,-0.25971460342407227,0.521031379699707
1697910557527774000,5.38077392578125,-0.24036967754364014,-0.5235162973403931,-0.4693260192871094
1697910557546741800,5.39974169921875,-0.15073037147521973,-0.5716723799705505,-0.6996793746948242
1697910557565709300,5.418709228515625,-0.1824251413345337,-0.2746112644672394,-0.7308568954467773
1697910557584677000,5.437677001953125,-0.2275710105895996,-0.0529860258102417,-0.3795013427734375
1697910557603645000,5.45664501953125,-0.10243725776672363,0.04120588302612305,-0.049317359924316406
1697910557622612500,5.475612548828125,-0.026478052139282227,0.0705520510673523,0.14858245849609375
1697910557641580300,5.494580322265625,0.0009741783142089844,0.10676440596580505,0.2464151382446289
1697910557660548000,5.513548095703125,-0.07087516784667969,0.06342896819114685,0.2017993927001953
1697910557679515600,5.532515625,-0.18155264854431152,-0.06716901063919067,0.03882789611816406
1697910557698483500,5.5514833984375,-0.29557526111602783,-0.10220372676849365,-0.1332111358642578
1697910557717451000,5.570450927734375,-0.3175337314605713,-0.00540412962436676,-0.3028907775878906
1697910557736418800,5.589418701171875,-0.22073662281036377,0.09783993661403656,-0.3536643981933594
1697910557755386600,5.60838671875,-0.10053718090057373,0.18614721298217773,-0.34090614318847656
1697910557774354200,5.627354248046875,-0.04103124141693115,0.3036746382713318,-0.2455730438232422
1697910557793322000,5.646322021484375,-0.018124699592590332,0.44391679763793945,-0.08204269409179688
1697910557812289500,5.66528955078125,0.02838921546936035,0.5039088726043701,0.047410011291503906
1697910557831257300,5.68425732421875,0.06872057914733887,0.4420270323753357,0.1527690887451172
1697910557850225200,5.70322509765625,0.11706626415252686,0.30254656076431274,0.1743927001953125
1697910557869193000,5.72219287109375,0.10186195373535156,0.10067819058895111,0.12806224822998047
1697910557888160500,5.741160400390625,0.07691121101379395,-0.11932897567749023,0.09106731414794922
1697910557907128300,5.76012841796875,0.11637651920318604,-0.23851333558559418,0.015532493591308594
1697910557926096000,5.779095947265625,0.058052897453308105,-0.32871752977371216,-0.03415679931640625
1697910557945063700,5.798063720703125,-0.05757701396942139,-0.37769871950149536,-0.05823993682861328
1697910557964031500,5.817031494140625,-0.13104140758514404,-0.37611880898475647,0.00061798095703125
1697910557982999000,5.8359990234375,-0.13982415199279785,-0.3340907096862793,0.04166698455810547
1697910558001966800,5.854966796875,-0.12753045558929443,-0.25915074348449707,0.06516170501708984
1697910558020934700,5.8739345703125,-0.10073268413543701,-0.1966981291770935,0.03941917419433594
1697910558039902200,5.892902099609375,-0.08341348171234131,-0.14197637140750885,-0.06448554992675781
1697910558058870000,5.9118701171875,-0.14728283882141113,-0.0817437618970871,-0.06601333618164062
1697910558077837600,5.930837646484375,-0.1693965196609497,-0.07752479612827301,-0.0962667465209961
1697910558096805400,5.949805419921875,-0.18341994285583496,-0.017095230519771576,-0.12076759338378906
1697910558115773200,5.968773193359375,-0.18798673152923584,-0.0371689572930336,-0.09536170959472656
1697910558134740700,5.98774072265625,-0.10709726810455322,0.012872867286205292,-0.09920692443847656
1697910558153708500,6.00670849609375,-0.028443574905395508,0.11019141972064972,-0.13385581970214844
1697910558172676400,6.02567626953125,-0.015482306480407715,0.19731222093105316,-0.07901287078857422
1697910558191644000,6.044643798828125,-0.011924982070922852,0.29271894693374634,-0.06668758392333984
1697910558210611700,6.06361181640625,0.007072091102600098,0.2897433340549469,-0.07094573974609375
1697910558229579500,6.08257958984375,0.029458045959472656,0.2701069116592407,-0.05704212188720703
1697910558248547000,6.101547119140625,0.0032387971878051758,0.24052047729492188,-0.05531787872314453
1697910558267515000,6.120514892578125,-0.042815566062927246,0.21716374158859253,0.007182121276855469
1697910558286482400,6.139482421875,-0.09606790542602539,0.1874547004699707,0.018555641174316406
1697910558305450200,6.1584501953125,-0.1467970609664917,0.11920323967933655,0.027991294860839844
1697910558324418000,6.17741796875,-0.15722107887268066,0.013153553009033203,-0.041916847229003906
1697910558343385600,6.196385498046875,-0.20630311965942383,-0.07204277813434601,-0.04641437530517578
1697910558362353400,6.215353515625,-0.20372045040130615,-0.03822268545627594,-0.041123390197753906
1697910558381321200,6.2343212890625,-0.1752392053604126,-0.05571986734867096,-0.12044239044189453
1697910558400288800,6.253288818359375,-0.18355083465576172,-0.0660056620836258,-0.10205936431884766
1697910558419256600,6.272256591796875,-0.16002941131591797,-0.022385776042938232,-0.07324790954589844
1697910558438224400,6.291224365234375,-0.10478878021240234,0.005777984857559204,-0.05733013153076172
1697910558457192000,6.31019189453125,-0.06627166271209717,0.01537063717842102,-0.03794097900390625
1697910558476159700,6.32915966796875,-0.055327653884887695,-0.007003456354141235,0.025977134704589844
1697910558495127300,6.348127197265625,0.0373837947845459,0.0027039647102355957,0.05585479736328125
1697910558514095000,6.36709521484375,0.041533708572387695,-0.001989990472793579,0.0781564712524414
1697910558533063000,6.38606298828125,0.025913119316101074,0.04262790083885193,0.05130767822265625
1697910558552030700,6.40503076171875,-0.012838959693908691,0.0710509866476059,-0.01605224609375
1697910558570998300,6.423998291015625,-0.045456767082214355,0.05395878851413727,-0.0811319351196289
1697910558589966000,6.442966064453125,-0.06060755252838135,0.035273149609565735,-0.09090805053710938
1697910558608933600,6.46193359375,-0.023189306259155273,0.04275168478488922,-0.021322250366210938
1697910558627901400,6.4809013671875,-0.02014791965484619,0.00527559220790863,0.026123046875
1697910558646869200,6.499869140625,0.057675838470458984,0.008052915334701538,-0.009942054748535156
1697910558665836800,6.5188369140625,0.06464648246765137,0.062169432640075684,-0.02567768096923828
1697910558684804600,6.5378046875,0.0819694995880127,0.08602695167064667,-0.0035839080810546875
1697910558703772400,6.5567724609375,0.09023940563201904,0.07795293629169464,-0.0009374618530273438
1697910558722740000,6.575739990234375,0.07534384727478027,0.08821852505207062,0.00415802001953125
1697910558741707800,6.594707763671875,0.05268752574920654,0.09590756893157959,0.025427818298339844
1697910558760675600,6.613675537109375,0.03068065643310547,0.06141284108161926,0.011251449584960938
1697910558779643100,6.63264306640625,0.010598897933959961,0.04909834265708923,-0.030683517456054688
1697910558798611000,6.65161083984375,0.006964683532714844,0.020670682191848755,-0.04804420471191406
1697910558817578800,6.670578857421875,0.002303600311279297,-0.030051618814468384,-0.011357307434082031
1697910558836546300,6.68954638671875,-0.025097966194152832,0.019391939043998718,-0.006957054138183594
1697910558855514000,6.70851416015625,-0.044159650802612305,-0.004215314984321594,-0.03731727600097656
1697910558874482000,6.72748193359375,-0.023892760276794434,-0.010695472359657288,-0.011402130126953125
1697910558893449500,6.746449462890625,0.00027930736541748047,-0.029085785150527954,0.013939857482910156
1697910558912417300,6.765417236328125,-0.00784456729888916,-0.02188919484615326,-0.0013275146484375
1697910558931385000,6.784385009765625,-0.030959010124206543,-0.016866639256477356,0.005267143249511719
1697910558950352600,6.8033525390625,-0.035781145095825195,-0.023593097925186157,0.011694908142089844
1697910558969320400,6.822320556640625,-0.06495153903961182,-0.027479469776153564,-0.014369964599609375
1697910558988288300,6.841288330078125,-0.07414090633392334,-0.009899497032165527,0.009644508361816406
1697910559007255800,6.860255859375,-0.07177531719207764,-0.014159902930259705,0.0025911331176757812
1697910559026223600,6.8792236328125,-0.045395731925964355,0.016477137804031372,-0.014064788818359375
1697910559045191400,6.89819140625,-0.018830537796020508,0.008269771933555603,0.00240325927734375
1697910559064159000,6.917158935546875,0.036731839179992676,0.035660117864608765,0.02047443389892578
1697910559083126800,6.936126708984375,0.07525336742401123,0.06388737261295319,0.047310829162597656
1697910559102094600,6.955094482421875,0.11247098445892334,0.06261134147644043,0.03367042541503906
1697910559121062100,6.974062255859375,0.044409990310668945,0.056204766035079956,0.006636619567871094
1697910559140030000,6.993030029296875,0.010961771011352539,0.05257101356983185,-0.02159404754638672
1697910559158997500,7.01199755859375,0.002531766891479492,0.053638994693756104,-0.02366161346435547
1697910559177965300,7.03096533203125,0.0895770788192749,0.02440616488456726,0.06251335144042969
1697910559196933000,7.04993310546875,0.18953609466552734,0.007601842284202576,0.08915233612060547
1697910559215901000,7.06890087890625,0.2888026237487793,0.0038257986307144165,0.10317420959472656
1697910559234868500,7.087868408203125,0.3693842887878418,-0.012596294283866882,0.06806564331054688
1697910559253836300,7.106836181640625,0.40933287143707275,-0.019795268774032593,0.034462928771972656
1697910559272804000,7.12580419921875,0.401509165763855,-0.020224228501319885,0.04450035095214844
1697910559291771600,7.144771728515625,0.3770725727081299,0.0007661730051040649,0.031246185302734375
1697910559310739500,7.163739501953125,0.35151076316833496,0.04856298863887787,-0.01682567596435547
1697910559329707300,7.182707275390625,0.34812474250793457,0.05491776764392853,-0.0775003433227539
1697910559348674800,7.2016748046875,0.36707043647766113,0.06755577027797699,-0.1368551254272461
1697910559367642600,7.220642578125,0.39173638820648193,0.05519150197505951,-0.13162612915039062
1697910559386610400,7.2396103515625,0.46412861347198486,0.04607737064361572,-0.06000995635986328
1697910559405578000,7.258577880859375,0.5034298896789551,0.046989068388938904,-0.018276214599609375
1697910559424545800,7.2775458984375,0.49874162673950195,0.07718011736869812,-0.04099559783935547
1697910559443513600,7.296513671875,0.49679672718048096,0.05938413739204407,-0.055716514587402344
1697910559462481200,7.315481201171875,0.48850518465042114,0.024487793445587158,-0.1434173583984375
1697910559481449000,7.334448974609375,0.4745696187019348,0.03355535864830017,-0.2368011474609375
1697910559500416800,7.353416748046875,0.4999028444290161,0.04607859253883362,-0.3178997039794922
1697910559519384300,7.37238427734375,0.5812950134277344,0.065187469124794,-0.4816102981567383
1697910559538352000,7.39135205078125,0.6264917850494385,0.11928506195545197,-0.6170587539672852
1697910559557320000,7.41031982421875,0.5933395624160767,0.1815830022096634,-0.6737184524536133
1697910559576287500,7.42928759765625,0.5265036225318909,0.16667699813842773,-0.6602401733398438
1697910559595255300,7.44825537109375,0.5167814493179321,0.145207479596138,-0.6281776428222656
1697910559614223000,7.46722314453125,0.3505951762199402,0.03893563151359558,-0.5758352279663086
1697910559633190700,7.486190673828125,0.3312363624572754,-0.10985782742500305,-0.6888322830200195
1697910559652158500,7.505158447265625,0.39040130376815796,-0.18281221389770508,-0.8449621200561523
1697910559671126300,7.524126220703125,0.3499283790588379,-0.25232139229774475,-0.9132413864135742
1697910559690093800,7.54309375,0.3683249354362488,-0.17191407084465027,-1.1033620834350586
1697910559709061600,7.5620615234375,0.10417422652244568,-0.20838767290115356,-1.3264360427856445
1697910559728029400,7.581029541015625,-0.15586990118026733,-0.2940065562725067,-1.4981765747070312
1697910559746997000,7.5999970703125,-0.3222329020500183,-0.20814448595046997,-1.5943026542663574
1697910559765964800,7.61896484375,-0.3241632580757141,0.13312283158302307,-1.5380206108093262
1697910559784932600,7.6379326171875,-0.5001437664031982,0.24385693669319153,-1.4677033424377441
1697910559803900200,7.656900146484375,-0.5542246103286743,0.2136857509613037,-1.3165111541748047
1697910559822868000,7.675867919921875,-0.43326056003570557,0.01575106382369995,-1.1049880981445312
1697910559841835800,7.694835693359375,-0.4761679172515869,-0.11441296339035034,-0.8368339538574219
1697910559860803600,7.713803466796875,-0.5705139636993408,-0.49512583017349243,-0.4392051696777344
1697910559879771100,7.732771240234375,-0.8393650054931641,-0.20704257488250732,0.7927379608154297
1697910559898739000,7.751739013671875,-0.9896795749664307,-0.3122498095035553,0.4939603805541992
1697910559917706800,7.770706787109375,-0.7732789516448975,-0.5053081512451172,0.6957406997680664
1697910559936674300,7.78967431640625,-0.6735525131225586,-0.5696344971656799,0.8382987976074219
1697910559955642000,7.80864208984375,-0.7777764797210693,-0.5023377537727356,0.9127988815307617
1697910559974610000,7.82760986328125,-0.9784750938415527,-0.2072201669216156,0.9936628341674805
1697910559993577500,7.846577392578125,-1.2700645923614502,0.013115495443344116,0.8073787689208984
1697910560012545300,7.865545166015625,-1.367924690246582,0.235909104347229,0.792933464050293
1697910560031513000,7.88451318359375,-1.4529213905334473,0.23896247148513794,0.8185081481933594
1697910560050480600,7.903480712890625,-1.4887561798095703,0.08341842889785767,0.9205894470214844
1697910560069448400,7.922448486328125,-1.3140153884887695,-0.09209710359573364,0.8299579620361328
1697910560088416300,7.941416259765625,-1.0707268714904785,-0.18352288007736206,0.8552227020263672
1697910560107383800,7.9603837890625,-0.5780377388000488,-0.345652312040329,1.2147130966186523
1697910560126351600,7.9793515625,-0.6678123474121094,-0.29239892959594727,1.1540336608886719
1697910560145319400,7.9983193359375,-0.9548549652099609,-0.42649418115615845,1.1022958755493164
1697910560164287200,8.017287353515625,-0.9104137420654297,-0.4377668797969818,0.9090681076049805
1697910560183254800,8.0362548828125,-0.8485746383666992,-0.3230718970298767,0.9335746765136719
1697910560202222600,8.05522265625,-0.5233230590820312,-0.14483559131622314,0.9666013717651367
1697910560221190400,8.0741904296875,-0.26135969161987305,0.14432936906814575,1.0388011932373047
1697910560240158000,8.093157958984374,0.0684967041015625,0.3119394779205322,0.781764030456543
1697910560259125800,8.112125732421875,-0.018144607543945312,0.37407922744750977,0.5704212188720703
1697910560278093600,8.131093505859376,-0.20990657806396484,0.49350255727767944,0.5293292999267578
1697910560297061000,8.15006103515625,-0.36168527603149414,0.38888752460479736,0.49285221099853516
1697910560316029000,8.16902880859375,-0.18376398086547852,0.23215395212173462,0.5752534866333008
1697910560334996700,8.187996826171876,-0.11570310592651367,0.312691867351532,0.7657222747802734
1697910560353964500,8.206964599609375,-0.14457130432128906,0.20696526765823364,0.659419059753418
1697910560372932000,8.22593212890625,-0.20013999938964844,0.3824094533920288,0.6859159469604492
1697910560391900000,8.24489990234375,-0.19181585311889648,0.427176833152771,0.6738338470458984
1697910560410867700,8.26386767578125,0.1077275276184082,0.42058587074279785,0.7710676193237305
1697910560429835300,8.282835205078126,0.13897323608398438,0.31680983304977417,0.5804233551025391
1697910560448803000,8.301802978515624,0.08076333999633789,0.09369218349456787,0.8980207443237305
1697910560467771000,8.32077099609375,0.055660247802734375,0.07417702674865723,0.7147817611694336
1697910560486738700,8.33973876953125,0.4379444122314453,0.09992057085037231,0.7955317497253418
1697910560505706200,8.358706298828125,0.32845306396484375,-0.014032602310180664,1.0730628967285156
1697910560524674000,8.377674072265625,0.5593628883361816,0.14752072095870972,1.3724322319030762
1697910560543641900,8.396641845703124,0.695742130279541,0.20694923400878906,1.6972475051879883
1697910560562609400,8.415609375,0.4411749839782715,0.021053969860076904,1.1995291709899902
1697910560581577200,8.4345771484375,0.5777606964111328,-0.03328537940979004,1.2878837585449219
1697910560600545000,8.453544921875,0.48924827575683594,0.1384984850883484,1.0173301696777344
1697910560619512600,8.4725126953125,0.5110397338867188,0.16490286588668823,1.235888957977295
1697910560638480400,8.49148046875,0.5468029975891113,-0.176838219165802,0.4926290512084961
1697910560657448200,8.5104482421875,0.6461400985717773,-0.053400516510009766,0.9853425025939941
1697910560676415700,8.529415771484375,0.6116433143615723,0.041967928409576416,1.0102038383483887
1697910560695383600,8.548383544921874,0.5627961158752441,0.1512700319290161,0.915433406829834
1697910560714351400,8.567351318359375,0.3980097770690918,0.10083973407745361,0.9580192565917969
1697910560733319000,8.58631884765625,0.3721275329589844,-0.00579226016998291,0.8440260887145996
1697910560752286700,8.60528662109375,0.4094090461730957,0.20294922590255737,0.9827227592468262
1697910560771254500,8.624254638671875,0.6367759704589844,0.07124650478363037,0.9386229515075684
1697910560790222300,8.643222412109376,0.519383430480957,0.14845353364944458,1.016622543334961
1697910560809190000,8.66218994140625,0.5448946952819824,0.2049851417541504,1.0305652618408203
1697910560828157700,8.68115771484375,0.7912535667419434,0.10535934567451477,1.1340813636779785
1697910560847125500,8.70012548828125,0.6513590812683105,-0.04382696747779846,1.2116670608520508
1697910560866093300,8.71909326171875,0.4521975517272949,-0.11604908108711243,1.1181058883666992
1697910560885060900,8.738060791015625,0.7520112991333008,0.21917206048965454,1.3139925003051758
1697910560904028700,8.757028564453124,1.1574797630310059,0.16696730256080627,1.3353853225708008
1697910560922996500,8.77599658203125,0.851527214050293,0.29567211866378784,1.3235759735107422
1697910560941964000,8.794964111328126,0.8133420944213867,-0.018986761569976807,1.2478218078613281
1697910560960931800,8.813931884765625,0.7060022354125977,-0.00597071647644043,1.3138866424560547
1697910560979899600,8.832899658203125,0.642399787902832,0.04565894603729248,1.288121223449707
1697910560998867200,8.8518671875,0.7134461402893066,0.2513412833213806,1.2578563690185547
1697910561017835000,8.8708349609375,0.5965251922607422,0.3090863823890686,1.1838884353637695
1697910561036802800,8.889802734375,0.41634654998779297,0.22413784265518188,1.0519208908081055
1697910561055770600,8.9087705078125,0.05811166763305664,0.03636753559112549,0.9130935668945312
1697910561074738200,8.92773828125,-0.1738729476928711,0.09798496961593628,0.9035444259643555
1697910561093706000,8.9467060546875,-0.29078006744384766,-0.04553192853927612,0.7874603271484375
1697910561112673800,8.965673828125,-0.4336681365966797,-0.08435982465744019,0.7569332122802734
1697910561131641600,8.9846416015625,-0.7010769844055176,0.053269147872924805,0.5186023712158203
1697910561150609200,9.003609130859376,-0.7232604026794434,0.019743263721466064,0.3553581237792969
1697910561169577000,9.022576904296875,-0.8116655349731445,-0.16392487287521362,0.1090078353881836
1697910561188544800,9.041544677734375,-0.9329557418823242,-0.22370928525924683,0.04328632354736328
1697910561207512300,9.06051220703125,-0.9224491119384766,-0.2110716700553894,0.013125419616699219
1697910561226480000,9.079480224609375,-0.8700637817382812,-0.20654761791229248,-0.029378890991210938
1697910561245448000,9.098447998046876,-0.7579011917114258,-0.14377015829086304,-0.05008697509765625
1697910561264415700,9.117415771484374,-0.5736942291259766,-0.0383952260017395,0.04858589172363281
1697910561283383300,9.13638330078125,-0.5426936149597168,0.022374451160430908,0.19843482971191406
1697910561302351000,9.15535107421875,-0.6546759605407715,-0.035421669483184814,0.1641693115234375
1697910561321319000,9.17431884765625,-0.7600393295288086,0.08917582035064697,0.09553146362304688
1697910561340286500,9.193286376953125,-0.6811466217041016,0.072970449924469,-0.08815479278564453
1697910561359254300,9.212254150390624,-0.6151039600372314,0.016535401344299316,-0.4598512649536133
1697910561378222000,9.23122216796875,-0.5939967632293701,-0.04526239633560181,-0.7269821166992188
1697910561397190000,9.25018994140625,-0.6676325798034668,-0.09782576560974121,-0.9133338928222656
1697910561416157400,9.269157470703124,-0.5849201679229736,-0.2942773103713989,-1.0458297729492188
1697910561435125200,9.288125244140625,-0.5172305107116699,-0.3011361360549927,-1.0918607711791992
1697910561454093000,9.307093017578126,-0.48220133781433105,-0.2782818675041199,-1.1526832580566406
1697910561473060900,9.326060791015625,-0.38095974922180176,-0.2361595630645752,-1.152348518371582
1697910561492028400,9.3450283203125,-0.3647334575653076,-0.2241230607032776,-1.1159133911132812
1697910561510996200,9.363996337890624,-0.3433711528778076,-0.24463096261024475,-0.9539070129394531
1697910561529964000,9.382964111328125,-0.16321444511413574,-0.21691760420799255,-0.9929208755493164
1697910561548931800,9.401931884765625,-0.06561946868896484,-0.028310924768447876,-0.8616161346435547
1697910561567899400,9.4208994140625,0.0013992786407470703,0.03028234839439392,-0.9557628631591797
1697910561586867200,9.4398671875,0.05914735794067383,0.06613248586654663,-1.0491342544555664
1697910561605835000,9.4588349609375,0.05952274799346924,-0.06639575958251953,-1.0814924240112305
1697910561624802600,9.477802490234374,0.1001046895980835,-0.29886096715927124,-1.1581344604492188
1697910561643770400,9.496770263671875,0.14066553115844727,-0.2167288362979889,-1.030766487121582
1697910561662738200,9.51573828125,0.23948943614959717,0.08741211891174316,-0.8216733932495117
1697910561681706000,9.5347060546875,0.1608964204788208,0.1292564868927002,-0.8277864456176758
1697910561700673800,9.553673828125,0.10466545820236206,0.09198978543281555,-0.8054494857788086
1697910561719641300,9.572641357421874,0.27143704891204834,0.09631502628326416,-0.8590049743652344
1697910561738609200,9.591609130859375,0.4638463854789734,-0.08907660841941833,-1.1970558166503906
1697910561757577000,9.610576904296876,0.6932306289672852,-0.3014049828052521,-1.5370607376098633
1697910561776544500,9.62954443359375,0.7645589113235474,-0.36376017332077026,-1.9268550872802734
1697910561795512300,9.64851220703125,0.8486563563346863,-0.3808719515800476,-2.244600296020508
1697910561814480100,9.667480224609376,0.9475221037864685,-0.22287853062152863,-2.4173731803894043
1697910561833448000,9.686447998046875,0.8796880841255188,-0.2569395899772644,-2.4442262649536133
1697910561852415500,9.70541552734375,0.8267652988433838,-0.2142811268568039,-2.2838902473449707
1697910561871383300,9.72438330078125,0.8243377208709717,-0.15755778551101685,-2.1333885192871094
1697910561890351000,9.74335107421875,0.8019716143608093,-0.10613538324832916,-1.892974853515625
1697910561909319000,9.76231884765625,0.804354727268219,0.026269569993019104,-1.4175529479980469
1697910561928286500,9.781286376953124,0.6918817162513733,0.1903994083404541,-0.7990570068359375
1697910561947254300,9.800254150390625,0.5259828567504883,0.3175303339958191,-0.4360780715942383
1697910561966222000,9.81922216796875,0.3905421793460846,0.4070732593536377,-0.2746238708496094
1697910561985190000,9.83818994140625,0.25987768173217773,0.20572131872177124,-0.3541374206542969
1697910562004157400,9.857157470703125,0.24324405193328857,0.03950206935405731,-0.5113887786865234
1697910562023125200,9.876125244140624,0.3453606367111206,-0.10121224820613861,-0.7774763107299805
1697910562042093000,9.895093017578125,0.7041299343109131,-0.19765064120292664,-1.1551389694213867
1697910562061060900,9.914060791015626,1.0315577983856201,-0.13211479783058167,-1.4134817123413086
1697910562080028400,9.9330283203125,1.073349118232727,0.02348896861076355,-1.238551139831543
1697910562098996200,9.951996337890625,0.6113338470458984,0.011292532086372375,-0.6386308670043945
1697910562117964000,9.970964111328126,0.15200215578079224,-0.17460760474205017,-0.06723213195800781
1697910562136931800,9.989931884765625,-0.1175915002822876,-0.3233901262283325,0.24040794372558594
1697910562155899400,10.0088994140625,-0.06698787212371826,-0.2067023664712906,0.17325210571289062
1697910562174867200,10.0278671875,0.07425856590270996,0.023035138845443726,-0.03375720977783203
1697910562193835000,10.0468349609375,0.20630258321762085,0.20307557284832,-0.26616477966308594
1697910562212802800,10.065802734375,0.2338218092918396,0.2691638767719269,-0.4719381332397461
1697910562231770400,10.084770263671874,0.16479510068893433,0.2209072858095169,-0.5606603622436523
1697910562250738200,10.10373828125,0.12085199356079102,0.14447955787181854,-0.5733308792114258
1697910562269706000,10.1227060546875,0.14292848110198975,0.16011185944080353,-0.5699186325073242
1697910562288673800,10.141673828125,0.14386653900146484,0.1906203180551529,-0.4667978286743164
1697910562307641600,10.1606416015625,0.1434396505355835,0.1974153071641922,-0.31195735931396484
1697910562326609200,10.179609130859374,0.2523825764656067,0.16642668843269348,-0.26529884338378906
1697910562345577000,10.198576904296875,0.24156427383422852,0.08452446758747101,-0.20904827117919922
1697910562364544800,10.217544677734375,0.19653171300888062,0.010706543922424316,-0.19042396545410156
1697910562383512600,10.2365126953125,0.1531137228012085,-0.05209988355636597,-0.2721900939941406
1697910562402480000,10.255480224609375,0.04283607006072998,-0.11227864027023315,-0.3341856002807617
1697910562421448000,10.274447998046876,-0.01335155963897705,-0.11617855727672577,-0.25176525115966797
1697910562440415700,10.293415771484375,-0.056883931159973145,-0.0674794465303421,-0.2077350616455078
1697910562459383600,10.312383544921875,-0.10794591903686523,-0.020569249987602234,-0.17196178436279297
1697910562478351000,10.33135107421875,-0.0817948579788208,0.06183503568172455,-0.2422504425048828
1697910562497319000,10.35031884765625,0.014142870903015137,0.057981982827186584,-0.3032379150390625
1697910562516286700,10.36928662109375,-0.02898573875427246,0.06694220006465912,-0.31084251403808594
1697910562535254500,10.388254638671874,-0.05050945281982422,0.06698526442050934,-0.2484579086303711
1697910562554222000,10.40722216796875,-0.07683038711547852,0.01979823410511017,-0.15802764892578125
1697910562573190000,10.42618994140625,-0.06873273849487305,0.003978103399276733,-0.13634967803955078
1697910562592157700,10.44515771484375,-0.09255385398864746,-0.00723952054977417,-0.19927310943603516
1697910562611125500,10.46412548828125,-0.03680562973022461,0.010127365589141846,-0.21577167510986328
1697910562630093300,10.48309326171875,0.06899750232696533,0.0455569326877594,-0.27644824981689453
1697910562649060900,10.502060791015625,0.0931699275970459,0.059007495641708374,-0.3027658462524414
1697910562668028700,10.521028564453125,0.01704227924346924,0.06995424628257751,-0.21574878692626953
1697910562686996500,10.53999658203125,0.0010907649993896484,0.06928786635398865,-0.2019357681274414
1697910562705964300,10.55896435546875,-0.01938033103942871,0.041887253522872925,-0.1464366912841797
1697910562724931800,10.577931884765626,-0.02906513214111328,0.05076557397842407,-0.06003379821777344
1697910562743899600,10.596899658203125,0.0015072822570800781,0.061303794384002686,-0.0795755386352539
1697910562762867500,10.615867431640625,0.0616917610168457,0.01526680588722229,-0.1447887420654297
1697910562781835300,10.634835205078126,0.03623628616333008,-0.010142594575881958,-0.21019649505615234
1697910562800802800,10.653802734375,0.010615944862365723,-0.004844456911087036,-0.21038150787353516
1697910562819770600,10.6727705078125,0.031923532485961914,-0.01664024591445923,-0.21388626098632812
1697910562838738400,10.691738525390624,0.044594764709472656,0.016706883907318115,-0.19895458221435547
1697910562857706200,10.710706298828125,0.07162225246429443,0.018621772527694702,-0.19684982299804688
1697910562876674000,10.729674072265626,0.10542917251586914,0.010840892791748047,-0.21368408203125
1697910562895641600,10.7486416015625,0.14550501108169556,-0.001842409372329712,-0.22983169555664062
1697910562914609400,10.767609375,0.217399001121521,-0.06798654794692993,-0.3066434860229492
1697910562933577200,10.7865771484375,0.3176795244216919,-0.14191541075706482,-0.2879753112792969
1697910562952545000,10.805544921875,0.36515069007873535,-0.07818743586540222,-0.2705411911010742
1697910562971512600,10.8245126953125,0.3149951696395874,-0.04362297058105469,-0.24399280548095703
1697910562990480400,10.84348046875,0.32116609811782837,-0.044058799743652344,-0.2051095962524414
1697910563009448200,10.8624482421875,0.339788019657135,-0.07339344918727875,-0.24197673797607422
1697910563028416000,10.881416015625,0.30879420042037964,-0.1102444976568222,-0.2704763412475586
1697910563047383600,10.900383544921874,0.4359877109527588,-0.09874787926673889,-0.38311767578125
1697910563066351400,10.919351318359375,0.549231767654419,-0.03836546838283539,-0.55255126953125
1697910563085319200,10.938319091796876,0.6496028900146484,0.04154874384403229,-0.6185464859008789
1697910563104287000,10.957286865234375,0.44345253705978394,0.09835276007652283,-0.5931491851806641
1697910563123254800,10.9762548828125,0.34944307804107666,0.12496358156204224,-0.47693634033203125
1697910563142222600,10.99522265625,0.2844676971435547,0.1016678512096405,-0.489959716796875
1697910563161190100,11.014190185546875,0.2813813090324402,0.09462396800518036,-0.49656105041503906
1697910563180158000,11.033157958984376,0.38044944405555725,0.034903332591056824,-0.5362081527709961
1697910563199125800,11.052125732421874,0.37662672996520996,-0.016067087650299072,-0.61285400390625
1697910563218093600,11.071093505859375,0.449013352394104,0.13694368302822113,-0.7890434265136719
1697910563237061000,11.09006103515625,0.49790799617767334,0.32369375228881836,-1.0125722885131836
1697910563256029000,11.10902880859375,0.1367645263671875,0.2600618600845337,-1.2753219604492188
1697910563274996700,11.127996826171875,-0.16821599006652832,0.018320634961128235,-1.5590953826904297
1697910563293964500,11.146964599609374,-0.08367955684661865,-0.007862702012062073,-1.7853374481201172
1697910563312932000,11.16593212890625,0.10623645782470703,-0.00816507637500763,-1.848158836364746
1697910563331900000,11.18489990234375,0.07109367847442627,0.10079300403594971,-1.8308768272399902
1697910563350867700,11.20386767578125,-0.20927739143371582,0.2188776731491089,-1.795731544494629
1697910563369835500,11.22283544921875,-0.47914111614227295,0.27396032214164734,-1.8458223342895508
1697910563388803300,11.24180322265625,-0.7231329679489136,0.5019174218177795,-1.1558561325073242
1697910563407771100,11.260771240234375,-0.8933805227279663,0.2003079354763031,-0.3627939224243164
1697910563426738700,11.27973876953125,-0.9143917560577393,0.14692556858062744,-0.6433849334716797
1697910563445706500,11.29870654296875,-0.8688356876373291,0.1898857057094574,-0.49149036407470703
1697910563464674300,11.31767431640625,-0.6428351402282715,0.1277656853199005,-0.45841503143310547
1697910563483642000,11.33664208984375,-0.6282269954681396,-0.397549033164978,-0.7426013946533203
1697910563502609700,11.355609619140624,-0.871265172958374,-0.44500330090522766,-0.22187137603759766
1697910563521577500,11.374577392578125,-0.975456953048706,-0.5272422432899475,0.16516876220703125
1697910563540545300,11.393545166015626,-1.123295545578003,-0.5981436371803284,0.4197731018066406
1697910563559513000,11.41251318359375,-1.3034446239471436,-0.5882246494293213,0.6988430023193359
1697910563578481000,11.43148095703125,-1.23240327835083,-0.4863530695438385,1.0089826583862305
1697910563597448400,11.450448486328124,-1.0814878940582275,-0.40949541330337524,1.0700302124023438
1697910563616416300,11.469416259765625,-0.9159860610961914,-0.37960106134414673,1.050374984741211
1697910563635384000,11.488384033203126,-0.8427834510803223,-0.31423673033714294,1.2427082061767578
1697910563654352000,11.507351806640624,-0.41773080825805664,-0.3293267488479614,1.0759191513061523
1697910563673319700,11.526319580078125,-0.3596649169921875,-0.08674144744873047,0.9645013809204102
1697910563692287500,11.54528759765625,-0.48546266555786133,0.12434124946594238,0.9092922210693359
1697910563711255000,11.564255126953125,-0.42539072036743164,0.07799607515335083,0.6487178802490234
1697910563730222800,11.583222900390625,-0.521367073059082,0.10601449012756348,0.8250894546508789
1697910563749190700,11.602190673828124,-0.3984708786010742,0.2668755054473877,0.9458189010620117
1697910563768158500,11.621158447265625,-0.23792600631713867,0.1915189027786255,0.933375358581543
1697910563787126300,11.640126220703126,0.016212940216064453,-0.011337697505950928,0.6228799819946289
1697910563806093800,11.65909375,-0.15121078491210938,0.15761536359786987,0.9235477447509766
1697910563825061600,11.6780615234375,-0.1283555030822754,0.15704303979873657,1.0213165283203125
1697910563844029400,11.697029541015626,-0.1448206901550293,0.37131160497665405,0.7144031524658203
1697910563862997200,11.715997314453125,0.1621694564819336,0.4040622115135193,1.1210570335388184
1697910563881964800,11.73496484375,0.3852086067199707,0.04718250036239624,1.2311272621154785
1697910563900932600,11.7539326171875,0.3501739501953125,0.03308612108230591,1.3051586151123047
1697910563919900400,11.772900390625,0.22248125076293945,0.019254207611083984,1.2557005882263184
1697910563938868200,11.7918681640625,0.16211843490600586,0.1655796766281128,1.2208890914916992
1697910563957836000,11.8108359375,0.0735163688659668,0.19160765409469604,0.9632949829101562
1697910563976803800,11.829803955078125,0.4555544853210449,0.3280307650566101,1.0959534645080566
1697910563995771400,11.848771484375,0.6174168586730957,0.26243188977241516,1.3065261840820312
1697910564014739200,11.8677392578125,0.46486806869506836,-0.05477428436279297,1.0417070388793945
1697910564033707000,11.88670703125,0.7531356811523438,-0.33355098962783813,0.9807462692260742
1697910564052674800,11.9056748046875,0.41313743591308594,-0.06906625628471375,0.9234633445739746
1697910564071642600,11.924642578125,0.3112201690673828,0.0010094940662384033,1.0936861038208008
1697910564090610200,11.943610107421875,0.5310797691345215,-0.23074030876159668,0.9019064903259277
1697910564109578000,11.962577880859374,0.6821260452270508,0.03139686584472656,0.6073007583618164
1697910564128545800,11.9815458984375,0.52001953125,0.22679486870765686,0.5743937492370605
1697910564147513600,12.000513671875,0.33431196212768555,-0.029645532369613647,1.270707607269287
1697910564166481400,12.0194814453125,0.4728832244873047,-0.08351823687553406,0.4717597961425781
1697910564185449000,12.038448974609375,0.3502225875854492,0.05342414975166321,0.6288566589355469
1697910564204416800,12.057416748046874,0.8357706069946289,0.09860631823539734,0.8809432983398438
1697910564223384600,12.076384521484375,0.7784647941589355,0.20221289992332458,0.8050923347473145
1697910564242352400,12.095352294921875,0.45059871673583984,0.11215859651565552,0.5958085060119629
1697910564261320200,12.1143203125,0.4039921760559082,-0.012103468179702759,0.5400505065917969
1697910564280288000,12.1332880859375,0.3068733215332031,0.07867768406867981,0.4188981056213379
1697910564299255600,12.152255615234376,0.44492292404174805,0.061756908893585205,0.6563520431518555
1697910564318223400,12.171223388671875,0.5090570449829102,0.049352943897247314,0.6096634864807129
1697910564337191200,12.190191162109375,0.40604305267333984,0.1128743588924408,0.43929004669189453
1697910564356159000,12.209158935546874,0.3327054977416992,0.21722018718719482,0.44489479064941406
1697910564375126800,12.228126708984375,0.4340639114379883,0.08637350797653198,0.4704413414001465
1697910564394094300,12.24709423828125,0.4899563789367676,0.05070602893829346,0.39110469818115234
1697910564413062100,12.266062255859374,0.34238672256469727,0.05504968762397766,0.6727461814880371
1697910564432030000,12.285030029296875,0.4159684181213379,-0.01733270287513733,-0.045413970947265625
1697910564450997800,12.303997802734376,0.3493814468383789,-0.041694045066833496,0.5933241844177246
1697910564469965600,12.322965576171875,0.42351722717285156,0.09107697010040283,0.47911882400512695
1697910564488933400,12.341933349609375,0.08991384506225586,-0.03894251585006714,0.5741510391235352
1697910564507901000,12.36090087890625,0.24860143661499023,0.09691601991653442,0.7150564193725586
1697910564526868700,12.37986865234375,0.4401283264160156,0.08603131771087646,0.7256865501403809
1697910564545836500,12.39883642578125,0.511359691619873,0.08208680152893066,0.9294471740722656
1697910564564804400,12.417804443359374,0.5603632926940918,0.13763943314552307,0.8582959175109863
1697910564583772200,12.436772216796875,0.5583081245422363,-0.06570681929588318,0.9453048706054688
1697910564602739700,12.45573974609375,0.7327275276184082,-0.002835184335708618,1.3899154663085938
1697910564621707500,12.47470751953125,0.7067317962646484,-0.011359035968780518,1.354250431060791
1697910564640675300,12.49367529296875,0.693021297454834,0.09863978624343872,1.1110529899597168
1697910564659643100,12.51264306640625,0.5760335922241211,0.011509597301483154,1.0709924697875977
1697910564678611000,12.53161083984375,0.4480104446411133,0.06503397226333618,0.9990348815917969
1697910564697578500,12.55057861328125,0.3166069984436035,0.09408730268478394,0.8073444366455078
1697910564716546300,12.56954638671875,0.15898895263671875,0.17969810962677002,0.6693172454833984
1697910564735514000,12.58851416015625,-0.05858135223388672,0.10518884658813477,0.4740610122680664
1697910564754482000,12.60748193359375,-0.1730036735534668,-0.06612735986709595,0.4610633850097656
1697910564773449700,12.62644970703125,-0.2734699249267578,-0.1587049961090088,0.3952140808105469
1697910564792417500,12.64541748046875,-0.10261058807373047,-0.08862709999084473,0.39307212829589844
1697910564811385300,12.66438525390625,-0.021956443786621094,-0.10286480188369751,0.35660648345947266
1697910564830353000,12.683352783203125,-0.08561897277832031,0.039421677589416504,0.21493244171142578
1697910564849320700,12.70232080078125,-0.029448986053466797,-0.00943291187286377,0.24139881134033203
1697910564868288500,12.72128857421875,-0.19246912002563477,0.11033833026885986,0.10794734954833984
1697910564887256300,12.74025634765625,-0.36574840545654297,0.1016893982887268,0.04029560089111328
1697910564906224000,12.75922412109375,-0.4503445625305176,-0.01038902997970581,0.0014324188232421875
1697910564925192000,12.77819189453125,-0.5449223518371582,-0.026179134845733643,0.025545120239257812
1697910564944159500,12.797159423828125,-0.5276889801025391,-0.027639389038085938,-0.14981651306152344
1697910564963127300,12.816127197265626,-0.34560728073120117,-0.10020005702972412,-0.2769956588745117
1697910564982095000,12.83509521484375,-0.2754096984863281,-0.06619638204574585,-0.374481201171875
1697910565001063000,12.85406298828125,-0.5037107467651367,-0.011397600173950195,-0.47702789306640625
1697910565020030700,12.87303076171875,-0.5933184623718262,-0.15767860412597656,-0.6918058395385742
1697910565038998500,12.89199853515625,-0.6851334571838379,-0.18113917112350464,-0.7930307388305664
1697910565057966300,12.91096630859375,-0.6906671524047852,-0.0756305456161499,-0.8547687530517578
1697910565076934000,12.929933837890625,-0.7800564765930176,-0.03126978874206543,-0.9612550735473633
1697910565095901700,12.948901611328125,-0.6553840637207031,-0.08212065696716309,-1.165090560913086
1697910565114869500,12.967869384765624,-0.5838117599487305,-0.14439672231674194,-1.238363265991211
1697910565133837300,12.98683740234375,-0.5721118450164795,-0.23944362998008728,-1.400033950805664
1697910565152805000,13.00580517578125,-0.5093653202056885,-0.3192860186100006,-1.4724922180175781
1697910565171773000,13.02477294921875,-0.49669313430786133,-0.2384290099143982,-1.4537744522094727
1697910565190740500,13.043740478515625,-0.49664831161499023,-0.11007702350616455,-1.478200912475586
1697910565209708300,13.062708251953126,-0.5837411880493164,-0.07511919736862183,-1.3031806945800781
1697910565228676000,13.081676025390625,-0.5571095943450928,-0.1563977599143982,-1.265162467956543
1697910565247644000,13.100643798828125,-0.43886375427246094,-0.19740039110183716,-1.2438898086547852
1697910565266611700,13.11961181640625,-0.24578595161437988,-0.15775218605995178,-1.1459455490112305
1697910565285579500,13.13857958984375,-0.3344578742980957,-0.3595336973667145,-1.1888427734375
1697910565304547300,13.15754736328125,-0.256772518157959,-0.4069182574748993,-1.0873594284057617
1697910565323515100,13.17651513671875,-0.26091551780700684,-0.308052659034729,-1.136948585510254
1697910565342482700,13.195482666015625,-0.13301992416381836,-0.28314387798309326,-1.4807929992675781
1697910565361450500,13.214450439453126,-0.11267292499542236,-0.19449615478515625,-1.6818666458129883
1697910565380418300,13.233418212890625,0.02317988872528076,-0.2687992453575134,-2.072146415710449
1697910565399386000,13.25238623046875,0.2110288143157959,-0.29583507776260376,-2.330456256866455
1697910565418354000,13.27135400390625,0.2582099437713623,-0.18407413363456726,-2.3857388496398926
1697910565437321700,13.29032177734375,0.2560950517654419,-0.021683722734451294,-2.4678382873535156
1697910565456289500,13.30928955078125,0.3056478500366211,-0.05579328536987305,-2.35019588470459
1697910565475257000,13.328257080078124,0.31101441383361816,0.01675957441329956,-1.9483041763305664
1697910565494225000,13.347224853515625,0.3034006953239441,0.09421968460083008,-1.5098505020141602
1697910565513192700,13.366192626953126,0.39521485567092896,0.13747525215148926,-1.0287084579467773
1697910565532160500,13.385160400390625,0.45140165090560913,0.15390926599502563,-0.5938177108764648
1697910565551128300,13.40412841796875,0.44563722610473633,0.05157545208930969,-0.45789241790771484
1697910565570096000,13.42309619140625,0.4337390661239624,-0.032110393047332764,-0.4857969284057617
1697910565589064000,13.44206396484375,0.4524797797203064,-0.05955854058265686,-0.7957572937011719
1697910565608031700,13.46103173828125,0.5275064706802368,0.0869280993938446,-1.1022844314575195
1697910565626999300,13.479999267578124,0.6041994094848633,0.296831339597702,-1.4365787506103516
1697910565645967000,13.498967041015625,0.8726805448532104,0.29018646478652954,-1.832357406616211
1697910565664935000,13.517934814453126,1.1262928247451782,0.07132762670516968,-2.0276403427124023
1697910565683902700,13.53690283203125,1.0278916358947754,-0.12940917909145355,-1.6256866455078125
1697910565702870500,13.55587060546875,0.7553825974464417,0.0893881618976593,-0.7420778274536133
1697910565721838300,13.57483837890625,0.46985188126564026,0.4247341752052307,-0.13463497161865234
1697910565740806000,13.593805908203125,0.3231179714202881,0.6021111011505127,0.11247825622558594
1697910565759774000,13.61277392578125,0.2192416936159134,0.41103410720825195,0.09881305694580078
1697910565778741500,13.631741455078124,0.23660166561603546,0.15801839530467987,-0.18406200408935547
1697910565797709300,13.650709228515625,0.24029380083084106,-0.05826398730278015,-0.4509572982788086
1697910565816677000,13.669677001953126,0.20398052036762238,-0.0944131463766098,-0.6713266372680664
1697910565835645000,13.68864501953125,0.1950196921825409,-0.015986785292625427,-0.7597894668579102
1697910565854612700,13.70761279296875,0.12943577766418457,0.04229101538658142,-0.8291215896606445
1697910565873580500,13.72658056640625,0.06075936555862427,0.05021980404853821,-0.7388105392456055
1697910565892548400,13.74554833984375,0.07640209794044495,0.00889529287815094,-0.5061511993408203
1697910565911516000,13.764515869140626,0.14683008193969727,-0.0743180364370346,-0.33686161041259766
1697910565930483700,13.783483642578124,0.2467784285545349,-0.049081578850746155,-0.29239749908447266
1697910565949451500,13.802451416015625,0.3018426299095154,0.05158868432044983,-0.25266075134277344
1697910565968419300,13.82141943359375,0.39882558584213257,0.11224079132080078,-0.3276042938232422
1697910565987387100,13.84038720703125,0.33053624629974365,0.0626799464225769,-0.43068599700927734
1697910566006355000,13.85935498046875,0.15130385756492615,-0.009797200560569763,-0.5118961334228516
1697910566025322800,13.87832275390625,0.06912803649902344,-0.035942643880844116,-0.41394519805908203
1697910566044290600,13.89729052734375,0.10476323962211609,-0.055294111371040344,-0.2808084487915039
1697910566063258400,13.91625830078125,0.1102074682712555,-0.023320883512496948,-0.31055736541748047
1697910566082226000,13.935225830078124,0.1679236888885498,0.04789629578590393,-0.3639497756958008
1697910566101193700,13.95419384765625,0.137407124042511,0.12346497178077698,-0.4122495651245117
1697910566120161500,13.97316162109375,0.0932883620262146,0.1340034008026123,-0.43352317810058594
1697910566139129300,13.99212939453125,0.09819167852401733,0.0360986590385437,-0.3489370346069336
1697910566158097200,14.01109716796875,0.1440361738204956,-0.023440241813659668,-0.3118572235107422
1697910566177065000,14.03006494140625,0.17105194926261902,-0.0391826331615448,-0.2663736343383789
1697910566196032800,14.04903271484375,0.11956632137298584,-0.07828503847122192,-0.25291919708251953
1697910566215000600,14.06800048828125,0.03894925117492676,-0.09584102034568787,-0.2516040802001953
1697910566233968000,14.086968017578124,-0.0019138455390930176,-0.07545140385627747,-0.27588844299316406
1697910566252936200,14.105936279296875,-0.021020561456680298,-0.02303093671798706,-0.34130191802978516
1697910566271903700,14.12490380859375,-0.012747764587402344,-0.01831871271133423,-0.32073497772216797
1697910566290871600,14.14387158203125,-0.04495778679847717,-0.036752402782440186,-0.28662967681884766
1697910566309839400,14.16283935546875,-0.009750336408615112,-0.02426639199256897,-0.18883323669433594
1697910566328807200,14.18180712890625,0.03469359874725342,-0.04022219777107239,-0.18012714385986328
1697910566347775000,14.20077490234375,0.07406532764434814,-0.027059316635131836,-0.16503047943115234
1697910566366742800,14.21974267578125,0.09901085495948792,-0.023764729499816895,-0.20600128173828125
1697910566385710600,14.238710693359375,0.0689752995967865,-0.03034496307373047,-0.271209716796875
1697910566404678400,14.257678466796875,0.08059924840927124,-0.06273704767227173,-0.2902059555053711
1697910566423646000,14.27664599609375,0.1408383846282959,-0.04249957203865051,-0.3204841613769531
1697910566442613800,14.29561376953125,0.21619662642478943,-0.03191858530044556,-0.4056882858276367
1697910566461581600,14.31458154296875,0.40185242891311646,0.016155511140823364,-0.5216751098632812
1697910566480549400,14.33354931640625,0.6788489818572998,0.09397786855697632,-0.6077756881713867
1697910566499517200,14.35251708984375,0.9061238765716553,0.2980242371559143,-0.6352853775024414
1697910566518485000,14.371485107421876,0.8927488327026367,0.43582308292388916,-0.47736549377441406
1697910566537452800,14.390452880859375,0.8179811239242554,0.41886425018310547,-0.3483705520629883
1697910566556420600,14.409420654296875,0.7983690500259399,0.28259432315826416,-0.48439884185791016
1697910566575388400,14.428388427734374,0.8316034078598022,0.11701411008834839,-0.6518459320068359
1697910566594356200,14.447356201171875,0.8792304396629333,-0.09201496839523315,-0.6399850845336914
1697910566613323800,14.46632373046875,0.7209612131118774,-0.0912005603313446,-0.5135622024536133
1697910566632291600,14.48529150390625,0.5429704189300537,-0.03369954228401184,-0.5347585678100586
1697910566651259400,14.50425927734375,0.47157198190689087,-0.03259459137916565,-0.6682167053222656
1697910566670227200,14.523227294921876,0.5261017680168152,-0.14138588309288025,-0.8051166534423828
1697910566689195000,14.542195068359375,0.45860010385513306,-0.1775367259979248,-0.9531164169311523
1697910566708162800,14.561162841796875,0.2555587887763977,-0.15355709195137024,-1.185267448425293
1697910566727130600,14.580130615234374,0.1433011293411255,-0.22831988334655762,-1.5075550079345703
1697910566746098400,14.599098388671875,0.13756799697875977,-0.4171840250492096,-1.8378725051879883
1697910566765066200,14.618066162109375,-0.00864720344543457,-0.35741132497787476,-1.9828386306762695
1697910566784034000,14.637033935546874,-0.28684914112091064,-0.2982361316680908,-2.2625508308410645
1697910566803001900,14.656001953125,-0.5280153751373291,-0.41849738359451294,-2.64066219329834
1697910566821969700,14.6749697265625,-0.376446008682251,-0.4381377696990967,-2.6304335594177246
1697910566840937200,14.693937255859375,-0.1955111026763916,-0.17111709713935852,-2.397524356842041
1697910566859905000,14.712905029296875,-0.38908934593200684,0.23649930953979492,-1.952071189880371
1697910566878872800,14.731872802734374,-0.681128978729248,0.4825100898742676,-1.336550235748291
1697910566897840600,14.750840576171875,-0.8809154033660889,0.6948197484016418,0.03127861022949219
1697910566916808400,14.769808349609375,-1.1229276657104492,0.34200549125671387,-0.4510459899902344
1697910566935776300,14.7887763671875,-0.9792637825012207,0.1410529613494873,0.10253143310546875
1697910566954744000,14.807744140625,-0.8006401062011719,0.18613183498382568,0.06873321533203125
1697910566973712000,14.8267119140625,-0.8501927852630615,0.08484989404678345,0.17831897735595703
1697910566992679700,14.8456796875,-0.9499764442443848,-0.10754358768463135,0.36738014221191406
1697910567011647500,14.8646474609375,-1.1047344207763672,-0.24239176511764526,0.3895721435546875
1697910567030615300,14.883615234375,-1.126659870147705,-0.3064349889755249,0.4705791473388672
1697910567049583000,14.9025830078125,-1.1144957542419434,-0.29070374369621277,0.6966619491577148
1697910567068551000,14.921551025390626,-1.1290783882141113,-0.3532959818840027,0.8826990127563477
1697910567087518500,14.9405185546875,-1.1494994163513184,-0.42121195793151855,1.2071514129638672
1697910567106486300,14.959486328125,-1.1219067573547363,-0.5374447703361511,1.3388004302978516
1697910567125454000,14.9784541015625,-0.9904923439025879,-0.5284314155578613,1.4118661880493164
1697910567144422000,14.997421875,-0.7760324478149414,-0.4150846004486084,1.4334125518798828
1697910567163389700,15.0163896484375,-0.6215763092041016,-0.25137853622436523,1.074615478515625
1697910567182357500,15.035357421875,-0.7797384262084961,-0.0919731855392456,0.8180904388427734
1697910567201325300,15.0543251953125,-0.7998156547546387,0.10325628519058228,0.9426212310791016
1697910567220293000,15.073293212890626,-0.6835575103759766,0.1941961646080017,0.7271604537963867
1697910567239261000,15.092260986328125,-0.510986328125,0.17118173837661743,0.6497039794921875
1697910567258228700,15.111228759765625,-0.29053688049316406,-0.01604980230331421,0.5735797882080078
1697910567277196500,15.130196533203126,-0.16373777389526367,0.04909259080886841,1.0246200561523438
1697910567296164400,15.149164306640625,0.016938209533691406,0.041640281677246094,1.069382667541504
1697910567315132200,15.168132080078125,0.242523193359375,-0.01300191879272461,0.7999324798583984
1697910567334099700,15.187099609375,0.22143077850341797,0.1484789252281189,1.0120906829833984
1697910567353067500,15.206067626953125,0.1268157958984375,0.03674590587615967,0.63104248046875
1697910567372035300,15.225035400390626,0.31810712814331055,0.350145161151886,0.866124153137207
1697910567391003100,15.244003173828125,0.48927831649780273,0.44372105598449707,1.038496494293213
1697910567409971000,15.262970947265625,0.4618043899536133,0.11346209049224854,0.9426064491271973
1697910567428938800,15.281938720703126,0.43587446212768555,0.10854184627532959,1.2285842895507812
1697910567447906600,15.300906494140625,0.5356082916259766,0.14380058646202087,1.6010875701904297
1697910567466874400,15.319874267578125,0.3230571746826172,0.0754258930683136,0.9743747711181641
1697910567485842200,15.33884228515625,0.43222904205322266,-0.14688974618911743,1.052699089050293
1697910567504810000,15.35781005859375,0.6366071701049805,-0.06760972738265991,1.027381420135498
1697910567523777800,15.37677783203125,0.190826416015625,0.32438451051712036,1.1491575241088867
1697910567542745600,15.39574560546875,0.11002206802368164,-0.1456291675567627,0.6152529716491699
1697910567561713400,15.41471337890625,0.18432950973510742,-0.2846575081348419,1.02677583694458
1697910567580681200,15.43368115234375,0.04874467849731445,-0.27224838733673096,1.0467863082885742
1697910567599649000,15.45264892578125,0.3392148017883301,-0.12187322974205017,0.6796970367431641
1697910567618616600,15.471616455078125,0.4066734313964844,0.22548794746398926,0.812403678894043
1697910567637584400,15.49058447265625,0.08295822143554688,0.33669596910476685,0.7391171455383301
1697910567656552200,15.50955224609375,-0.3853015899658203,0.17369726300239563,0.2953338623046875
1697910567675520000,15.52852001953125,-0.18660974502563477,0.12371022999286652,0.6141300201416016
1697910567694487800,15.54748779296875,0.20061731338500977,0.12275570631027222,1.0258026123046875
1697910567713455600,15.56645556640625,0.2876315116882324,0.14936383068561554,0.8561520576477051
1697910567732423400,15.58542333984375,0.338287353515625,0.28496503829956055,0.47698497772216797
1697910567751391200,15.60439111328125,0.08825445175170898,0.3057669401168823,0.3766927719116211
1697910567770359000,15.623359130859376,-0.09591960906982422,0.1013355404138565,0.24542760848999023
1697910567789326800,15.642326904296874,-0.0021491050720214844,-0.03331771492958069,0.25628232955932617
1697910567808294700,15.661294677734375,-0.038765907287597656,-0.03634609282016754,0.3102250099182129
1697910567827262500,15.680262451171876,0.26024436950683594,-0.0909893810749054,0.2962355613708496
1697910567846230300,15.699230224609375,0.5098505020141602,0.061486899852752686,0.3684220314025879
1697910567865198000,15.718197998046875,0.31577301025390625,0.08971484005451202,0.2899160385131836
1697910567884166000,15.737165771484374,0.3027615547180176,0.014920815825462341,0.3728804588317871
1697910567903133700,15.7561337890625,0.45969486236572266,-0.17141640186309814,0.321561336517334
1697910567922101500,15.7751015625,0.44338464736938477,0.08006855845451355,0.6147222518920898
1697910567941069300,15.7940693359375,0.7748584747314453,-0.09203886985778809,0.7424454689025879
1697910567960037000,15.813037109375,0.639500617980957,-0.0095834881067276,0.6440134048461914
1697910567979005000,15.8320048828125,0.5926313400268555,0.1721690446138382,0.7465124130249023
1697910567997972700,15.85097265625,0.7859373092651367,0.23384186625480652,0.7927985191345215
1697910568016940300,15.869940185546875,0.7587018013000488,0.030170634388923645,1.0670514106750488
1697910568035908000,15.888908203125,0.714881420135498,0.06484369933605194,1.093822956085205
1697910568054876000,15.9078759765625,0.9412002563476562,0.12265333533287048,1.0339655876159668
1697910568073843700,15.92684375,0.811190128326416,-0.003352552652359009,1.3031120300292969
1697910568092811500,15.9458115234375,0.9047403335571289,-0.029097512364387512,1.0742473602294922
1697910568111779300,15.964779296875,0.56201171875,0.025946974754333496,1.0339527130126953
1697910568130747100,15.9837470703125,0.4845552444458008,-0.0056459009647369385,1.0525579452514648
1697910568149715000,16.00271484375,0.45928525924682617,0.0862964391708374,0.985285758972168
1697910568168682800,16.021682861328124,0.33600664138793945,0.0650847852230072,0.8255062103271484
1697910568187650600,16.040650634765626,0.11018610000610352,-0.153511643409729,0.6162557601928711
1697910568206618400,16.059618408203125,-0.20814943313598633,-0.3736589550971985,0.5074911117553711
1697910568225586200,16.078586181640624,-0.31258726119995117,-0.13312643766403198,0.6244802474975586
1697910568244554000,16.097553955078126,-0.4221525192260742,-0.03866192698478699,0.570526123046875
1697910568263521800,16.116521728515625,-0.3473052978515625,-0.15081697702407837,0.5550088882446289
1697910568282489600,16.135489501953124,-0.4139857292175293,-0.19021117687225342,0.4488677978515625
1697910568301457400,16.15445751953125,-0.42198753356933594,-0.1658545732498169,-0.03401374816894531
1697910568320425200,16.17342529296875,-0.6540532112121582,-0.03583306074142456,-0.2551422119140625
1697910568339393000,16.19239306640625,-0.8948497772216797,-0.10601037740707397,-0.17234516143798828
1697910568358360800,16.21136083984375,-0.9138369560241699,-0.22160261869430542,-0.19360637664794922
1697910568377328600,16.23032861328125,-0.907465934753418,-0.23959702253341675,-0.2412242889404297
1697910568396296400,16.24929638671875,-0.8838515281677246,-0.2644360661506653,-0.5078773498535156
1697910568415264300,16.26826416015625,-0.9953508377075195,-0.18813371658325195,-0.7019596099853516
1697910568434232000,16.287232177734374,-0.9603638648986816,-0.03644829988479614,-0.7688255310058594
1697910568453200000,16.306199951171877,-0.8321356773376465,0.15044695138931274,-0.7957248687744141
1697910568472167700,16.325167724609376,-0.8121299743652344,0.16108620166778564,-0.9184694290161133
1697910568491135500,16.344135498046874,-0.6922101974487305,-0.0916176438331604,-1.1152095794677734
1697910568510103300,16.363103271484373,-0.5327401161193848,-0.24996381998062134,-1.150467872619629
1697910568529071000,16.382071044921876,-0.4270906448364258,-0.2773857116699219,-1.2374277114868164
1697910568548039000,16.401038818359375,-0.6072869300842285,-0.2817968726158142,-1.1295337677001953
1697910568567006700,16.4200068359375,-0.6050510406494141,-0.26786911487579346,-1.0169801712036133
1697910568585974500,16.438974609375,-0.67572021484375,-0.26266980171203613,-0.9153928756713867
1697910568604942300,16.4579423828125,-0.697545051574707,-0.1944185495376587,-0.9017066955566406
1697910568623910100,16.47691015625,-0.641207218170166,-0.13720810413360596,-0.9416484832763672
1697910568642878000,16.4958779296875,-0.6579325199127197,-0.043742477893829346,-0.9506282806396484
1697910568661845800,16.514845703125,-0.5335133075714111,-0.028697848320007324,-1.0691890716552734
1697910568680813600,16.5338134765625,-0.40213727951049805,-0.0747949481010437,-1.1558380126953125
1697910568699781400,16.552781494140625,-0.2713747024536133,-0.027698278427124023,-1.2385921478271484
1697910568718749200,16.571749267578124,-0.2045292854309082,0.0014190673828125,-1.381819725036621
1697910568737717000,16.590717041015626,-0.15135693550109863,-0.04638642072677612,-1.5011205673217773
1697910568756684800,16.609684814453125,-0.05459737777709961,-0.12531059980392456,-1.512873649597168
1697910568775652600,16.628652587890624,-0.07882499694824219,-0.14587169885635376,-1.4189424514770508
1697910568794620400,16.647620361328126,-0.09974384307861328,-0.19208574295043945,-1.333780288696289
1697910568813588200,16.666588134765625,0.008483648300170898,-0.09736388921737671,-1.1486577987670898
1697910568832556000,16.68555615234375,0.030490875244140625,-0.009996235370635986,-1.0129289627075195
1697910568851523800,16.70452392578125,0.08642864227294922,0.04690265655517578,-1.078420639038086
1697910568870491600,16.72349169921875,0.19743132591247559,0.1286030411720276,-1.0622940063476562
1697910568889459500,16.74245947265625,0.23794245719909668,0.10577327013015747,-1.2544689178466797
1697910568908427300,16.76142724609375,0.04596114158630371,0.11420190334320068,-1.2433958053588867
1697910568927395000,16.78039501953125,-0.027977824211120605,0.09851974248886108,-1.1306400299072266
1697910568946363000,16.79936279296875,-0.016463756561279297,-0.04712846875190735,-1.064467430114746
1697910568965330700,16.81833056640625,-0.10365140438079834,-0.12799710035324097,-1.0420246124267578
1697910568984298500,16.837298583984374,-0.08983218669891357,-0.13091173768043518,-1.0844688415527344
1697910569003266300,16.856266357421877,-0.14280569553375244,-0.1541672646999359,-1.1817331314086914
1697910569022234000,16.875234130859376,-0.10028648376464844,-0.20199331641197205,-1.1571006774902344
1697910569041202000,16.894201904296875,-0.06768167018890381,-0.16615211963653564,-1.0709466934204102
1697910569060169700,16.913169677734373,-0.05941253900527954,-0.04414951801300049,-1.0927362442016602
1697910569079137500,16.932137451171876,0.12191510200500488,0.009853005409240723,-1.1143369674682617
1697910569098105300,16.951105224609375,0.21140223741531372,0.09406781196594238,-1.1832971572875977
1697910569117073200,16.9700732421875,0.30264607071876526,0.16306573152542114,-1.2853374481201172
1697910569136041000,16.989041015625,0.5001344680786133,0.3180053234100342,-1.3463516235351562
1697910569155008800,17.0080087890625,0.5466023683547974,0.4205619990825653,-1.3714771270751953
1697910569173976600,17.0269765625,0.49893462657928467,0.45865362882614136,-1.3184928894042969
1697910569192944400,17.0459443359375,0.4369785785675049,0.32805335521698,-1.204751968383789
1697910569211912200,17.064912109375,0.46456170082092285,0.1461164653301239,-1.1262626647949219
1697910569230880000,17.0838798828125,0.8282504081726074,0.0899537205696106,-1.1571016311645508
1697910569249847800,17.102847900390625,1.199763536453247,0.21050888299942017,-1.2356395721435547
1697910569268815600,17.121815673828124,1.3106554746627808,0.2903592586517334,-1.252706527709961
1697910569287783400,17.140783447265626,0.9845505356788635,0.0950825959444046,-0.9173145294189453
1697910569306751200,17.159751220703125,0.406341552734375,0.03334023058414459,-0.38320255279541016
1697910569325719000,17.178718994140624,0.04824894666671753,0.12196230888366699,-0.0776815414428711
1697910569344686800,17.197686767578126,0.1071176528930664,0.20667728781700134,-0.20482444763183594
1697910569363654700,17.216654541015625,0.20254051685333252,0.1818847954273224,-0.5054206848144531
1697910569382622500,17.23562255859375,0.27955079078674316,0.14179353415966034,-0.6761655807495117
1697910569401590300,17.25459033203125,0.2612256407737732,0.039802536368370056,-0.7491140365600586
1697910569420558000,17.27355810546875,0.19295579195022583,-0.03708833456039429,-0.7152976989746094
1697910569439526000,17.29252587890625,-0.004033148288726807,-0.05884407460689545,-0.5107927322387695
1697910569458493700,17.31149365234375,0.0009322762489318848,-0.10221540927886963,-0.33172035217285156
1697910569477461500,17.33046142578125,0.13433074951171875,-0.06108711659908295,-0.40914249420166016
1697910569496429300,17.34942919921875,0.16192668676376343,0.02591918408870697,-0.47205257415771484
1697910569515397000,17.368397216796875,0.14998024702072144,0.04788970947265625,-0.3915376663208008
1697910569534365000,17.387364990234374,0.1987323760986328,0.10325045883655548,-0.3355083465576172
1697910569553332700,17.406332763671877,0.2984854578971863,0.1258939802646637,-0.36072444915771484
1697910569572300500,17.425300537109376,0.30055320262908936,0.0660134106874466,-0.3712339401245117
1697910569591268400,17.444268310546875,0.3149259090423584,-0.009315580129623413,-0.4220390319824219
1697910569610236200,17.463236083984373,0.25255441665649414,-0.057085633277893066,-0.39526844024658203
1697910569629204000,17.482203857421876,0.1946784257888794,-0.04055227339267731,-0.3379812240600586
1697910569648171800,17.501171875,0.1286488175392151,0.009148120880126953,-0.34787750244140625
1697910569667139600,17.5201396484375,0.0783812403678894,0.05660471320152283,-0.41068363189697266
1697910569686107400,17.539107421875,0.039264976978302,0.05609385669231415,-0.43637752532958984
1697910569705075200,17.5580751953125,0.03435260057449341,0.05268782377243042,-0.37734413146972656
1697910569724043300,17.577043212890626,0.039722740650177,-0.03322264552116394,-0.29260826110839844
1697910569743011000,17.596010986328125,0.03765946626663208,-0.11312712728977203,-0.2923746109008789
1697910569761979000,17.614978759765624,0.01994270086288452,-0.10400344431400299,-0.2523946762084961
1697910569780946700,17.63394677734375,0.056201159954071045,-0.11127834022045135,-0.25350475311279297
1697910569799914500,17.65291455078125,0.07878631353378296,-0.1090431809425354,-0.2778959274291992
1697910569818882300,17.67188232421875,0.0964173674583435,-0.06759867072105408,-0.2780618667602539
1697910569837850000,17.69085009765625,0.07943224906921387,-0.05368039011955261,-0.22914409637451172
1697910569856818000,17.70981787109375,0.04630839824676514,-0.03356730937957764,-0.24727916717529297
1697910569875785700,17.72878564453125,0.03795546293258667,-0.006803080439567566,-0.2995748519897461
1697910569894753500,17.74775341796875,0.03319835662841797,-0.012679308652877808,-0.31754493713378906
1697910569913721300,17.766721435546874,0.022192001342773438,-0.011943817138671875,-0.27435302734375
1697910569932689200,17.785689208984376,0.05232769250869751,-0.03109891712665558,-0.2190847396850586
1697910569951657000,17.804656982421875,0.0740431547164917,-0.030456379055976868,-0.165679931640625
1697910569970624800,17.823624755859374,0.07466769218444824,-0.01414741575717926,-0.1654071807861328
1697910569989592600,17.842592529296876,0.09518939256668091,0.03003576397895813,-0.18387985229492188
1697910570008560400,17.861560302734375,0.06257259845733643,-0.002134382724761963,-0.2340993881225586
1697910570027528200,17.880528076171874,-0.013137996196746826,0.1068936437368393,-0.1870899200439453
1697910570046496000,17.89949609375,0.02920299768447876,0.15852707624435425,-0.16993045806884766
1697910570065463800,17.9184638671875,-0.00588911771774292,0.09671571850776672,-0.19263267517089844
1697910570084431600,17.937431640625,-0.044277727603912354,0.0960938036441803,-0.18901920318603516
1697910570103399400,17.9563994140625,-0.013083040714263916,0.11689108610153198,-0.14617347717285156
1697910570122367200,17.9753671875,-0.03618884086608887,0.04556006193161011,-0.12553691864013672
1697910570141335300,17.994335205078126,0.01898103952407837,-0.022482573986053467,-0.12440872192382812
1697910570160303000,18.01330322265625,0.017911314964294434,-0.029357075691223145,-0.12592411041259766
1697910570179271000,18.03227099609375,0.012429118156433105,-0.005680501461029053,-0.12465286254882812
1697910570198238700,18.05123876953125,-0.0006452202796936035,-0.006554663181304932,-0.11154556274414062
1697910570217206500,18.07020654296875,0.02865886688232422,-0.029722779989242554,-0.14332294464111328
1697910570236174300,18.08917431640625,0.04216653108596802,-0.0013009309768676758,-0.15522289276123047
1697910570255142100,18.10814208984375,0.0915725827217102,0.021214544773101807,-0.1460275650024414
1697910570274110000,18.12710986328125,0.16475030779838562,0.05684483051300049,-0.200408935546875
1697910570293077800,18.146077880859377,0.2473551332950592,0.08384254574775696,-0.22275257110595703
1697910570312045600,18.165045654296875,0.3916436433792114,0.1714417040348053,-0.25836849212646484
1697910570331013400,18.184013427734374,0.5065010786056519,0.2717737555503845,-0.32347774505615234
1697910570349981200,18.202981201171873,0.655403733253479,0.2641064524650574,-0.3889589309692383
1697910570368949000,18.221948974609376,0.7438847422599792,0.1491602063179016,-0.40565013885498047
1697910570387916800,18.240916748046875,0.7901695370674133,0.18990260362625122,-0.26334571838378906
1697910570406884600,18.259884521484373,0.8706543445587158,0.1756189465522766,-0.19112014770507812
1697910570425852400,18.278852294921876,0.931658148765564,0.2606186866760254,-0.41993141174316406
1697910570444820200,18.2978203125,0.9529836177825928,0.39767464995384216,-0.7405996322631836
1697910570463788000,18.3167880859375,1.0016549825668335,0.32320305705070496,-0.949162483215332
1697910570482755800,18.335755859375,0.8554130792617798,0.13927465677261353,-0.8443002700805664
1697910570501724000,18.354723876953123,0.6534003019332886,-0.10322248935699463,-0.7086009979248047
1697910570520691700,18.373691650390626,0.5675673484802246,-0.3655201494693756,-0.764744758605957
1697910570539659500,18.392659423828125,0.6797547936439514,-0.4984004497528076,-0.9110336303710938
1697910570558627300,18.41162744140625,0.7503898739814758,-0.40963974595069885,-1.2536945343017578
1697910570577595100,18.43059521484375,0.6393049359321594,-0.2798943817615509,-1.6859254837036133
1697910570596563000,18.44956298828125,0.468758225440979,-0.2855473458766937,-2.008610725402832
1697910570615530800,18.46853076171875,0.23211824893951416,-0.2928207516670227,-2.2193007469177246
1697910570634498600,18.48749853515625,-0.2087458372116089,-0.3753998875617981,-2.3752264976501465
1697910570653466400,18.50646630859375,-0.3007694482803345,-0.4574887752532959,-2.495328426361084
1697910570672434200,18.52543408203125,-0.12933313846588135,-0.3542473316192627,-2.6434531211853027
1697910570691402000,18.544402099609375,-0.12400221824645996,-0.14732903242111206,-2.641484260559082
1697910570710370000,18.5633701171875,-0.154036283493042,0.17255204916000366,-2.258727550506592
1697910570729337900,18.582337890625,-0.35036516189575195,0.39635199308395386,-1.9610896110534668
1697910570748305700,18.6013056640625,-0.6549341678619385,0.5517531037330627,-1.182833194732666
1697910570767273500,18.6202734375,-0.9029126167297363,0.42449700832366943,-0.4340944290161133
1697910570786241300,18.6392412109375,-1.1668362617492676,0.031714558601379395,-0.6013641357421875
1697910570805209000,18.658208984375,-1.1840620040893555,-0.05874103307723999,-0.14363765716552734
1697910570824177000,18.677177001953126,-1.0543041229248047,-0.3190275728702545,-0.03512287139892578
1697910570843144700,18.696144775390625,-1.0546789169311523,-0.4223879277706146,0.3542318344116211
1697910570862112500,18.715112548828124,-1.1385908126831055,-0.5970383882522583,0.5456972122192383
1697910570881080300,18.734080322265626,-1.2556962966918945,-0.64804607629776,0.8089733123779297
1697910570900048100,18.753048095703125,-1.554178237915039,-0.3988969027996063,1.2930965423583984
1697910570919016000,18.772015869140624,-1.675199031829834,-0.22075951099395752,1.862997055053711
1697910570937984000,18.79098388671875,-1.5368385314941406,-0.2729395925998688,1.6967926025390625
1697910570956951800,18.809951904296874,-1.4369893074035645,-0.4472193419933319,1.4666633605957031
1697910570975919600,18.828919677734376,-1.313539981842041,-0.29055312275886536,1.4383230209350586
1697910570994887400,18.847887451171875,-1.2443280220031738,-0.023485004901885986,1.1637744903564453
1697910571013855200,18.866855224609374,-1.0137553215026855,0.041835904121398926,0.828455924987793
1697910571032823000,18.885822998046876,-0.9274864196777344,0.30717021226882935,0.7370700836181641
1697910571051790800,18.904790771484375,-0.7866744995117188,0.41792356967926025,0.8039655685424805
1697910571070758700,18.923758544921874,-0.45185422897338867,0.20865684747695923,0.8792343139648438
1697910571089726500,18.9427265625,-0.46607398986816406,-0.29979434609413147,0.9085855484008789
1697910571108694300,18.9616943359375,-0.13625383377075195,-0.6084967851638794,1.03025484085083
1697910571127662000,18.980662109375,0.04801177978515625,-0.39470529556274414,1.3125019073486328
1697910571146630100,18.999630126953125,0.36841678619384766,0.09132367372512817,1.5465941429138184
1697910571165598000,19.018597900390624,0.5288434028625488,0.3248310685157776,1.6702299118041992
1697910571184565800,19.037565673828126,0.6135616302490234,0.46165046095848083,1.4795894622802734
1697910571203533600,19.056533447265625,0.5739140510559082,0.3476438820362091,1.3774490356445312
1697910571222501400,19.07550146484375,0.4998011589050293,0.33405327796936035,1.4547853469848633
1697910571241469200,19.09446923828125,0.307833194732666,0.05980673432350159,1.2199182510375977
1697910571260437000,19.11343701171875,0.15273523330688477,0.15663427114486694,1.1238656044006348
1697910571279404800,19.13240478515625,0.21828842163085938,-0.10708436369895935,0.7448387145996094
1697910571298372600,19.15137255859375,-0.1262497901916504,0.013676077127456665,0.9591732025146484
1697910571317340400,19.17034033203125,0.3464794158935547,-0.39151859283447266,1.282660961151123
1697910571336308500,19.18930859375,0.8305177688598633,-0.32482627034187317,1.250258445739746
1697910571355276300,19.2082763671875,0.48186826705932617,0.03515109419822693,1.2005047798156738
1697910571374244000,19.227244140625,0.5347380638122559,-0.11380124092102051,1.0131416320800781
1697910571393212000,19.2462119140625,0.8029823303222656,-0.23955340683460236,0.7749223709106445
1697910571412179700,19.2651796875,0.5193824768066406,0.2379843294620514,0.8907017707824707
1697910571431147500,19.2841474609375,0.21251201629638672,0.06292957067489624,0.9450874328613281
1697910571450115300,19.303115234375,-0.03515815734863281,-0.003273904323577881,0.5998401641845703
1697910571469083100,19.322083251953124,0.04771852493286133,-0.16500234603881836,0.5050787925720215
1697910571488051000,19.341051025390627,0.45685577392578125,0.033453114330768585,0.8369669914245605
1697910571507018800,19.360018798828126,0.5006651878356934,0.3822306990623474,0.9547362327575684
1697910571525986800,19.37898681640625,0.48246049880981445,0.33537453413009644,0.9376668930053711
1697910571544954600,19.39795458984375,0.3254075050354004,0.3132912516593933,0.5959510803222656
1697910571563922400,19.41692236328125,0.3517179489135742,0.20192530751228333,0.8096251487731934
1697910571582890200,19.43589013671875,0.42357301712036133,0.08334817737340927,0.7411017417907715
1697910571601858000,19.454858154296875,0.1555342674255371,0.2658339738845825,0.47173404693603516
1697910571620825900,19.473825927734374,0.07214546203613281,0.10737667232751846,0.40254974365234375
1697910571639793700,19.492793701171873,0.36893129348754883,0.18749912083148956,0.41532087326049805
1697910571658761500,19.511761474609376,0.3080787658691406,0.05203062295913696,0.4127974510192871
1697910571677729300,19.530729248046875,0.07491636276245117,0.02376481145620346,0.26410675048828125
1697910571696697000,19.549697021484373,0.030605792999267578,-0.03433991223573685,0.19733285903930664
1697910571715665200,19.5686650390625,0.13662195205688477,-0.09164030849933624,0.19457197189331055
1697910571734633000,19.587633056640627,0.2489757537841797,-0.20463323593139648,0.2422471046447754
1697910571753600800,19.606600830078126,0.3125495910644531,-0.1333630234003067,0.3200826644897461
1697910571772568600,19.625568603515624,0.3201460838317871,0.039960213005542755,0.2493114471435547
1697910571791536400,19.644536376953123,0.42388391494750977,-0.05156648904085159,0.4274110794067383
1697910571810504200,19.663504150390626,0.6382431983947754,-0.263238787651062,0.5276637077331543
1697910571829472000,19.682471923828125,0.550135612487793,-0.25333261489868164,0.5095791816711426
1697910571848439800,19.701439697265624,0.6789388656616211,-0.09886378049850464,0.6316647529602051
1697910571867408000,19.720407958984374,0.8313102722167969,-0.030668511986732483,0.3701009750366211
1697910571886375700,19.739375732421873,0.5971927642822266,-0.10802615433931351,0.6239938735961914
1697910571905343500,19.758343505859376,0.4503169059753418,-0.2418348491191864,0.7628259658813477
1697910571924311300,19.777311279296875,0.7144198417663574,-0.01654152199625969,0.687047004699707
1697910571943279000,19.796279052734373,0.5687422752380371,0.08970800042152405,0.7283496856689453
1697910571962247000,19.815246826171876,0.6745047569274902,-0.127165287733078,0.8195185661315918
1697910571981214700,19.834214599609375,0.43633556365966797,-0.20145639777183533,0.606689453125
1697910572000182500,19.8531826171875,0.2851853370666504,0.017148815095424652,0.7974443435668945
1697910572019150600,19.872150634765624,0.15480422973632812,-0.07095858454704285,0.3812747001647949
1697910572038118400,19.891118408203123,0.09230232238769531,-0.07929264008998871,0.4036293029785156
1697910572057086200,19.910086181640626,0.11377143859863281,-0.15860068798065186,0.5886049270629883
1697910572076054000,19.929053955078125,0.1859760284423828,0.09782284498214722,0.6129875183105469
1697910572095021800,19.948021728515624,0.31013917922973633,0.0860009491443634,0.5235443115234375
1697910572113989600,19.96698974609375,0.30700206756591797,0.07488340139389038,0.5460786819458008
1697910572132957700,19.985957763671873,0.08860969543457031,0.05731344223022461,0.29387998580932617
1697910572151925500,20.004925537109376,-0.2529263496398926,-0.03282445669174194,0.16522598266601562
1697910572170893300,20.023893310546875,-0.5207500457763672,-0.18909785151481628,-0.07511091232299805
1697910572189861000,20.042861083984373,-0.6532111167907715,-0.1749294102191925,-0.1813802719116211
1697910572208829000,20.061828857421876,-0.6722288131713867,-0.11251023411750793,-0.45900964736938477
1697910572227796700,20.080796630859375,-0.6463723182678223,-0.18119898438453674,-0.28624963760375977
1697910572246764500,20.0997646484375,-0.42856502532958984,-0.12126365303993225,-0.31945323944091797
1697910572265732400,20.118732421875,-0.32167911529541016,-0.08634725213050842,-0.3378024101257324
1697910572284700400,20.137700439453123,-0.19034957885742188,-0.10172170400619507,-0.6205716133117676
1697910572303668200,20.156668212890626,-0.40943193435668945,0.010868221521377563,-0.32413148880004883
1697910572322636000,20.175635986328125,-0.5780501365661621,0.08565059304237366,-0.07038497924804688
1697910572341603800,20.194603759765624,-0.6847743988037109,0.09751275181770325,-0.07198047637939453
1697910572360571600,20.213571533203126,-0.5028553009033203,0.021284490823745728,-0.0586090087890625
1697910572379539500,20.23253955078125,-0.22969818115234375,-0.042743951082229614,-0.025884628295898438
1697910572398507500,20.251507568359376,-0.2981705665588379,0.05266830325126648,0.007350921630859375
1697910572417475300,20.270475341796875,-0.43018388748168945,0.22034239768981934,0.01258087158203125
1697910572436443100,20.289443115234373,-0.6655855178833008,0.218999445438385,-0.15587806701660156
1697910572455411000,20.308410888671876,-0.8430180549621582,-0.039646267890930176,-0.35178279876708984
1697910572474378800,20.327378662109375,-0.9365358352661133,-0.08807405829429626,-0.4293060302734375
1697910572493346600,20.3463466796875,-0.8780136108398438,-0.0335044264793396,-0.5496835708618164
1697910572512314600,20.365314697265624,-0.8219380378723145,-0.03821107745170593,-0.798884391784668
1697910572531282400,20.384282470703123,-0.8152284622192383,-0.09994816780090332,-1.069295883178711
1697910572550250200,20.403250244140626,-0.7892780303955078,-0.14591121673583984,-1.1235756874084473
1697910572569218000,20.422218017578125,-0.6964139938354492,-0.15776211023330688,-1.0943593978881836
1697910572588185900,20.441185791015624,-0.7037124633789062,-0.10576844215393066,-0.8778324127197266
1697910572607153700,20.460153564453126,-0.7381329536437988,-0.01492878794670105,-0.625514030456543
1697910572626121500,20.47912158203125,-0.6333017349243164,0.05412954092025757,-0.5423355102539062
1697910572645089500,20.498089599609376,-0.6166911125183105,0.16822710633277893,-0.43729209899902344
1697910572664057300,20.517057373046875,-0.689936637878418,0.24971884489059448,-0.38286781311035156
1697910572683025200,20.536025146484373,-0.6685819625854492,0.2625683844089508,-0.4190225601196289
1697910572701993000,20.554992919921876,-0.5775308609008789,0.13736221194267273,-0.6187286376953125
1697910572720960800,20.573960693359375,-0.5616319179534912,0.03371879458427429,-0.758540153503418
1697910572739928800,20.5929287109375,-0.6020450592041016,-0.048688679933547974,-0.9090414047241211
1697910572758896400,20.611896484375,-0.5031826496124268,-0.2245316505432129,-1.0858020782470703
1697910572777864200,20.6308642578125,-0.46233606338500977,-0.16221880912780762,-1.078812599182129
1697910572796832000,20.64983203125,-0.46370553970336914,-0.015953123569488525,-0.9991140365600586
1697910572815799800,20.6687998046875,-0.3968088626861572,0.06708940863609314,-0.9602909088134766
1697910572834768000,20.687767822265624,-0.3222174644470215,-0.021680384874343872,-1.0515756607055664
1697910572853735700,20.706735595703126,-0.14288902282714844,-0.06694492697715759,-1.0723247528076172
1697910572872703500,20.725703369140625,-0.03950333595275879,-0.1402519941329956,-1.1491069793701172
1697910572891671300,20.74467138671875,0.00705265998840332,-0.15815469622612,-1.1564311981201172
1697910572910639000,20.76363916015625,0.10732722282409668,-0.23326647281646729,-1.2006025314331055
1697910572929607000,20.78260693359375,0.2014087438583374,-0.21760474145412445,-1.1878185272216797
1697910572948575000,20.801574951171876,0.1417466402053833,-0.2448740005493164,-1.2134160995483398
1697910572967542800,20.820542724609375,0.20894455909729004,-0.2437056601047516,-1.2012262344360352
1697910572986510600,20.839510498046874,0.3608705997467041,-0.1637343466281891,-1.1257991790771484
1697910573005478400,20.858478515625,0.591498851776123,-0.0014486759901046753,-1.0304441452026367
1697910573024446200,20.8774462890625,0.6138908863067627,0.0913366824388504,-1.0830516815185547
1697910573043414300,20.896414306640626,0.6977119445800781,0.1368650197982788,-1.152543067932129
1697910573062382000,20.915382080078125,0.7255651354789734,0.2645888328552246,-1.2291946411132812
1697910573081350000,20.934349853515624,0.7496248483657837,0.31207695603370667,-1.3842172622680664
1697910573100317700,20.953317626953126,0.6842473149299622,0.2696005702018738,-1.321537971496582
1697910573119285500,20.972285400390625,0.6024813652038574,0.28763580322265625,-1.0425777435302734
1697910573138253300,20.99125341796875,0.4571560025215149,0.2217072993516922,-0.8777866363525391
1697910573157221400,21.010221435546875,0.3847885727882385,0.08975167572498322,-0.7052268981933594
1697910573176189200,21.029189208984373,0.448013573884964,-0.06951259076595306,-0.6920528411865234
1697910573195157000,21.048156982421876,0.7021384835243225,-0.09974688291549683,-0.8021535873413086
1697910573214124800,21.067124755859375,1.0377966165542603,-0.15580135583877563,-1.0186595916748047
1697910573233092600,21.086092529296874,1.0110282897949219,-0.2578486204147339,-1.0241527557373047
1697910573252060700,21.105060791015624,0.6596124172210693,-0.14409124851226807,-0.5909223556518555
1697910573271028500,21.124028564453123,0.3308154344558716,0.13918903470039368,-0.20516109466552734
1697910573289996300,21.142996337890626,0.16099491715431213,0.29516634345054626,-0.052344322204589844
1697910573308964000,21.161964111328125,0.1856103539466858,0.2701176106929779,-0.1075286865234375
1697910573327932200,21.18093212890625,0.26183250546455383,0.22328448295593262,-0.2697029113769531
1697910573346900000,21.19989990234375,0.3488239049911499,0.16455158591270447,-0.3976421356201172
1697910573365867800,21.21886767578125,0.2873431146144867,0.12302781641483307,-0.4226703643798828
1697910573384835600,21.237835693359376,0.3241181969642639,0.21709032356739044,-0.6007537841796875
1697910573403803400,21.256803466796875,0.3095388412475586,0.2737279534339905,-0.7330770492553711
1697910573422771200,21.275771240234373,0.16811269521713257,0.2653774619102478,-0.5144205093383789
1697910573441739300,21.2947392578125,0.08927106857299805,0.30888885259628296,-0.35437870025634766
1697910573460707000,21.31370703125,0.1066412627696991,0.16337473690509796,-0.32880401611328125
1697910573479675000,21.3326748046875,0.10691148042678833,-0.07455338537693024,-0.1817626953125
1697910573498642700,21.351642578125,0.10376635193824768,-0.17165018618106842,-0.13083648681640625
1697910573517610800,21.37061083984375,0.12611699104309082,-0.1358989030122757,-0.1039266586303711
1697910573536578600,21.38957861328125,0.10134509205818176,-0.01271878182888031,-0.1724691390991211
1697910573555546400,21.40854638671875,-0.023009002208709717,0.060425594449043274,-0.2179107666015625
1697910573574514200,21.42751416015625,-0.04049241542816162,0.10877372324466705,-0.2526416778564453
1697910573593482000,21.44648193359375,-0.03522902727127075,0.1416703760623932,-0.31191062927246094
1697910573612450000,21.465449951171873,-0.00026798248291015625,0.16246218979358673,-0.34842872619628906
1697910573631417900,21.48441796875,0.04045367240905762,0.14045675098896027,-0.31578636169433594
1697910573650385700,21.5033857421875,0.07367128133773804,0.09236165881156921,-0.2355356216430664
1697910573669353500,21.522353515625,0.11778011918067932,0.028106361627578735,-0.17192459106445312
1697910573688321300,21.5413212890625,0.0903039276599884,0.0008513182401657104,-0.1412220001220703
1697910573707289300,21.560289306640627,0.0935128927230835,-0.030830100178718567,-0.1393585205078125
1697910573726257200,21.579257080078126,0.09839433431625366,-0.007716313004493713,-0.23289775848388672
1697910573745225000,21.598224853515624,0.03112196922302246,0.007300958037376404,-0.25786399841308594
1697910573764192800,21.61719287109375,-0.04150962829589844,-0.03921052813529968,-0.2305126190185547
1697910573783160600,21.63616064453125,-0.02920711040496826,-0.0652015209197998,-0.16247081756591797
1697910573802128600,21.655128662109377,0.04215198755264282,-0.043374642729759216,-0.164459228515625
1697910573821096400,21.674096435546875,0.0644465982913971,-0.04630787670612335,-0.1432046890258789
1697910573840064300,21.693064208984374,0.09861677885055542,-0.09988486766815186,-0.1763448715209961
1697910573859032000,21.712031982421873,0.12493425607681274,-0.09314703941345215,-0.20117568969726562
1697910573878000000,21.731000244140624,0.11182406544685364,-0.06531970202922821,-0.14597511291503906
1697910573896968000,21.749968017578126,0.11692053079605103,-0.05485525727272034,-0.16489601135253906
1697910573915935700,21.768935791015625,0.14947858452796936,-0.037500008940696716,-0.19493579864501953
1697910573934903600,21.787903564453124,0.2666831314563751,-0.002540498971939087,-0.25219058990478516
1697910573953871600,21.80687158203125,0.3720162510871887,0.019922882318496704,-0.26534271240234375
1697910573972839400,21.82583935546875,0.4521804451942444,0.06843230128288269,-0.2925529479980469
1697910573991807200,21.84480712890625,0.49975189566612244,0.07724273204803467,-0.2949228286743164
1697910574010775000,21.863775146484375,0.45074379444122314,0.12721703946590424,-0.18782901763916016
1697910574029742800,21.882742919921874,0.3865615725517273,0.14375855028629303,-0.14745616912841797
1697910574048711000,21.9017109375,0.3860635459423065,0.18848837912082672,-0.2694816589355469
1697910574067678700,21.9206787109375,0.3713250458240509,0.11103720963001251,-0.4501066207885742
1697910574086646500,21.939646484375,0.43215763568878174,-0.02800963819026947,-0.4586315155029297
1697910574105614300,21.9586142578125,0.43776729702949524,-0.06794120371341705,-0.37366676330566406
1697910574124582400,21.97758251953125,0.44161534309387207,-0.07777388393878937,-0.40049266815185547
1697910574143550200,21.99655029296875,0.6084875464439392,-0.08825601637363434,-0.563847541809082
1697910574162518000,22.01551806640625,0.7074665427207947,-0.07439304888248444,-0.7339668273925781
1697910574181485800,22.03448583984375,0.5615016222000122,0.04125519096851349,-0.8831110000610352
1697910574200453600,22.05345361328125,0.4422053098678589,0.11336593329906464,-1.0272598266601562
1697910574219421700,22.072421630859374,0.44981467723846436,0.06303545832633972,-1.1056766510009766
1697910574238389500,22.091389404296876,0.4901782274246216,-0.10854135453701019,-1.0810127258300781
1697910574257357300,22.110357421875,0.42568325996398926,-0.2363070845603943,-1.0563583374023438
1697910574276325400,22.129325439453126,0.35527169704437256,-0.1669798046350479,-1.3375368118286133
1697910574295293200,22.148293212890625,0.3293226957321167,-0.02362269163131714,-1.6904411315917969
1697910574314261000,22.167260986328124,0.17593872547149658,0.012160167098045349,-2.059098243713379
1697910574333228800,22.186228759765626,0.15115618705749512,-0.19924481213092804,-2.330657958984375
1697910574352196600,22.205196533203125,-0.017343759536743164,-0.2327454686164856,-2.3733649253845215
1697910574371164700,22.22416455078125,-0.016495943069458008,-0.17639288306236267,-2.199258804321289
1697910574390132500,22.243132568359375,0.13313627243041992,-0.1456100046634674,-1.8789806365966797
1697910574409100300,22.262100341796874,0.0033206939697265625,0.05432364344596863,-1.3456320762634277
1697910574428068400,22.281068359375,-0.5160131454467773,0.08775219321250916,-1.0245542526245117
1697910574447036200,22.3000361328125,-0.9410717487335205,0.23611199855804443,0.15173721313476562
1697910574466004000,22.31900390625,-1.1165482997894287,-0.01232379674911499,-0.2150106430053711
1697910574484971800,22.3379716796875,-1.0208888053894043,0.08111299574375153,0.41114330291748047
1697910574503939800,22.35693994140625,-0.8694915771484375,-0.1578996330499649,0.49375247955322266
1697910574522907600,22.37590771484375,-0.783663272857666,-0.2666841447353363,0.8825302124023438
1697910574541875500,22.39487548828125,-0.9012451171875,-0.2470969557762146,1.1679649353027344
1697910574560843300,22.41384326171875,-0.9720649719238281,-0.11604225635528564,1.2533512115478516
1697910574579811300,22.432811279296875,-1.1467013359069824,-0.02930542826652527,1.181802749633789
1697910574598779100,22.451779052734373,-1.3590660095214844,0.11509266495704651,1.1734695434570312
1697910574617747000,22.470746826171876,-1.228895664215088,0.06033557653427124,1.212005615234375
1697910574636714800,22.48971484375,-1.31815767288208,0.00862017273902893,1.1312265396118164
1697910574655682800,22.508682861328126,-1.440213680267334,-0.013944745063781738,1.0468497276306152
1697910574674650600,22.527650634765624,-1.1699190139770508,-0.07403290271759033,0.9796762466430664
1697910574693618400,22.546618408203123,-0.861121654510498,-0.09423744678497314,1.0537900924682617
1697910574712586200,22.565586181640626,-0.5495672225952148,-0.2501448094844818,0.7097454071044922
1697910574731554300,22.58455419921875,-0.7260046005249023,-0.22479844093322754,0.6507401466369629
1697910574750522000,22.603522216796875,-0.7118606567382812,-0.13551458716392517,0.6960692405700684
1697910574769490000,22.622489990234374,-0.5370678901672363,-0.15319937467575073,0.6068692207336426
1697910574788458000,22.6414580078125,-0.6202659606933594,0.09702277183532715,0.7728252410888672
1697910574807425800,22.66042578125,-0.10687446594238281,0.41495105624198914,0.8700127601623535
1697910574826393600,22.6793935546875,0.23448705673217773,0.32716530561447144,0.7841620445251465
1697910574845361400,22.698361328125,0.3913397789001465,0.19875293970108032,0.6560330390930176
1697910574864329500,22.71732958984375,0.3418698310852051,0.16966944932937622,0.6750397682189941
1697910574883297300,22.73629736328125,0.21479129791259766,0.16705936193466187,1.2318286895751953
1697910574902265000,22.75526513671875,0.3542003631591797,0.4870408773422241,1.2713065147399902
1697910574921233000,22.77423291015625,0.6983723640441895,0.46834027767181396,1.223684310913086
1697910574940201000,22.793200927734375,0.4622373580932617,0.359945684671402,1.3704028129577637
1697910574959168800,22.812168701171874,0.3196239471435547,-0.2537463307380676,1.333024501800537
1697910574978136600,22.831136474609377,-0.2357625961303711,-0.2540879249572754,1.2541799545288086
1697910574997104600,22.850104736328124,-0.040795326232910156,0.02121531218290329,1.0180668830871582
1697910575016072400,22.869072509765626,0.3256669044494629,0.08408158272504807,1.4260597229003906
1697910575035040300,22.888040283203125,0.3801279067993164,-0.16040843725204468,1.4416098594665527
1697910575054008000,22.907008056640624,0.5477199554443359,0.013461634516716003,1.343287467956543
1697910575072976100,22.92597607421875,0.3269801139831543,0.3567343056201935,0.7683749198913574
1697910575091944000,22.94494384765625,0.036533355712890625,0.07000602781772614,0.8736047744750977
1697910575110911700,22.963911865234376,0.2442464828491211,0.37985020875930786,1.2953171730041504
1697910575129879800,22.9828798828125,0.773188591003418,0.20177079737186432,1.1613407135009766
1697910575148847600,23.00184765625,0.8701763153076172,0.18979355692863464,0.9550590515136719
1697910575167815400,23.0208154296875,0.5886998176574707,0.6990958452224731,0.8847341537475586
1697910575186783200,23.039783203125,0.5298371315002441,0.34284019470214844,0.45464515686035156
1697910575205751300,23.058751220703126,0.42878293991088867,-0.04821270704269409,0.40117740631103516
1697910575224719000,23.077718994140625,0.26073217391967773,-0.13962239027023315,0.5836081504821777
1697910575243687000,23.09668701171875,0.21442747116088867,-0.16004469990730286,0.7873902320861816
1697910575262654700,23.11565478515625,0.4591217041015625,0.20506320893764496,0.5422396659851074
1697910575281622800,23.134622802734373,0.6991114616394043,0.09853102266788483,-0.07508134841918945
1697910575300590600,23.153590576171876,0.21020841598510742,-0.058609992265701294,0.5173640251159668
1697910575319558400,23.172558349609375,0.19429302215576172,-0.2724533677101135,0.6368379592895508
1697910575338526500,23.1915263671875,0.4285621643066406,-0.06867113709449768,0.507962703704834
1697910575357494300,23.210494384765624,0.34540224075317383,0.05843085050582886,0.3981165885925293
1697910575376462000,23.229462158203123,0.34416770935058594,-0.05134531855583191,0.3551816940307617
1697910575395430000,23.248429931640626,0.18876361846923828,0.10246521234512329,0.22070789337158203
1697910575414398000,23.26739794921875,0.4386935234069824,-0.007362097501754761,0.42885828018188477
1697910575433365800,23.28636572265625,0.5851235389709473,-0.13105997443199158,0.3617229461669922
1697910575452333600,23.30533349609375,0.646270751953125,0.1804383397102356,0.31992292404174805
1697910575471301600,23.324301513671877,0.9421391487121582,0.07994425296783447,0.4213123321533203
1697910575490269400,23.34326953125,0.9473977088928223,-0.10164135694503784,0.5329875946044922
1697910575509237200,23.3622373046875,0.7473196983337402,-0.09581077098846436,0.545961856842041
1697910575528205000,23.381205078125,0.7212486267089844,-0.13760125637054443,0.6451230049133301
